ax,ay,az,dt,dpitch,dyaw,droll,pressure
-0.0006361309700847282,0.0005942448780775987,-0.0001841249535307325,0.1,0.0013645430764550846,-0.04080186823643231,0.04568226046773205,0.0
0.0005567309000026181,-0.0003945239295356586,0.00042135733546846895,0.1,0.00017826339901595907,-0.08116305433216234,0.04555985676808078,0.0
0.000226207436673581,-0.0002048374644004276,-0.0004966168188240348,0.1,0.0002504116840296658,-0.08190623955071903,0.04499425876284172,0.0
-0.000639903054312965,0.0004371003491246806,-0.0002175547220229909,0.1,-0.0011972186202574239,-0.08141245302041872,0.04550010112513173,0.0
-0.0001463480587133905,-0.0004942380261570946,-0.00012769385997988053,0.1,0.001236919190609888,-0.07942037391962327,0.04530854613895858,0.0
-0.00040266806657037206,-0.00042449655398762613,0.0005460348067140682,0.1,0.0012829678269373856,-0.08032847021887124,0.045342327155168324,0.0
-0.0004626900828195644,-0.0006609210567684339,0.00041343091425276963,0.1,-0.0009070208292989391,-0.08002596758824894,0.045271606851250305,0.0
0.0005565212711554478,0.00022805273139104215,0.00011360441132109468,0.1,-0.0011078404916081452,-0.07932317597865529,0.04511899860326156,0.0
0.00038888373175968797,0.00022065096949550706,0.0005309062332434795,0.1,-0.0006380597127026414,-0.08106732456809766,0.04609457432102614,0.0
6.743169818582731e-5,-4.833311955182184e-5,-0.0003283678643127881,0.1,-0.001602766000586065,-0.08163706938668439,0.04538906536698341,0.0
-0.00025824348423794343,0.000230102457841379,-0.0003864961028299251,0.1,-0.0009198277279082268,-0.0818539833189799,0.04546708245627158,0.0
0.0005213431576487873,0.00036857871840952143,0.0004963492961055251,0.1,-0.0010542364002730552,-0.08027778008564794,0.04570916912584698,0.0
-0.0006309927319642108,2.7829288150570693e-5,-0.0002463539274104318,0.1,0.0009118416295782589,-0.07820068818188246,0.045745650097135764,0.0
0.00037668987677862847,-0.0002647982101358835,0.0001155692031311612,0.1,0.0016492331049329343,-0.07964004285025174,0.04612518302827401,0.0
-0.0002341435527035617,-7.203936081042684e-5,0.0001336137634172062,0.1,-0.0005365233126082248,-0.07833950842486348,0.04518708442202788,0.0
-0.0002496042353603447,0.0005956936162453355,0.0003906291748811392,0.1,-7.335221433883756e-5,-0.07964385872537547,0.045108730992604706,0.0
-0.00013024986473133169,0.0006197807854854506,3.6526890637139305e-5,0.1,0.0017793436337144905,-0.0789709546277301,0.046067950368250066,0.0
-2.2575941282104158e-5,-9.710887942645098e-5,0.00021111230458594895,0.1,-0.0008246201899106719,-0.08040760185774637,0.04490382041342344,0.0
6.314875003685108e-5,-0.0001462761755931727,0.0004100311364779061,0.1,0.0016984507185707574,-0.08094452439271965,0.0460962506857041,0.0
-1.7842577595998746e-5,-0.0006702271680405505,-0.0005745461665057194,0.1,0.0017142326061040116,-0.07849369406707347,0.04507823394961249,0.0
0.00018622542524641118,-0.000369441209275308,0.0005541695735616199,0.1,0.00028685877372822203,-0.07959228085065823,0.04488675795551866,0.0
0.0005108142365169877,0.0003560445209773788,-0.0006639397517487879,0.1,4.997543356858988e-5,-0.07909251343318383,0.04486952871424023,0.0
0.00047225139469046665,0.0005057730665254475,-0.0006648624020074425,0.1,-0.0006045680221146749,-0.0783056982935157,0.045728850549274024,0.0
0.0003607224787714883,0.00017436015483885854,0.0006647599719708984,0.1,2.1546590595031264e-5,-0.08251004563692702,0.045158041616357586,0.0
0.00044629071804067234,-0.0003571806072194983,-0.0005051678940475999,0.1,-0.0003677419094600234,-0.08208611740082464,0.04591189622607923,0.0
-0.0003826685926221307,-0.0004283494244946187,-0.00042645629549173955,0.1,0.0011233977920533963,-0.07844164289775678,0.04581741771765367,0.0
0.00033761179259012415,-0.0005456724398367669,0.00034975073983766207,0.1,-0.0017226602770189516,-0.08097667449690109,0.045787612842151514,0.0
-7.273522307116798e-5,0.0001138708020333684,-0.00026734358593672066,0.1,-0.000703362327230739,-0.0810627560640737,0.04611856864163001,0.0
-0.0006223061751163545,-2.7338478890100594e-5,0.0005645337765623998,0.1,-0.00019746461952763696,-0.07998841486551475,0.04540740592171652,0.0
-0.0003732887935861129,-0.0005082915406875636,0.0005074455423560825,0.1,-0.00010559062083643396,-0.07958896643634138,0.04503932514283812,0.0
-0.00010388406735278879,-0.0004722317648197751,-3.486378608063129e-5,0.1,-0.002018002675658462,-0.08126994727211885,0.04532823225192178,0.0
0.00046072988097430604,-0.00025553826943896287,0.000335180598550788,0.1,0.0019505161304531101,-0.08262998097760335,0.04526750219195804,0.0
0.0003403162586572746,-0.0006470088941299747,-0.0006734447559769518,0.1,0.0009260398359454098,-0.08182368915293152,0.0449557399194582,0.0
0.0001878864331889435,8.033662466967911e-5,-0.000468951853901267,0.1,0.0005745508321521868,-0.07870159105811922,0.04516605872459068,0.0
9.075656240305504e-5,-0.00017180651232362955,0.0005373133191888169,0.1,0.000612731784129345,-0.08052794032314928,0.04522022551411488,0.0
0.00011034463218236692,0.0006289226773582928,0.00027528566248513674,0.1,0.0006427482578399065,-0.08181342660219539,0.046170125097527506,0.0
0.00014716467139956228,0.0003880571230726768,-0.0006604609336712438,0.1,0.0007461007878886201,-0.0826750219664727,0.04530271507749949,0.0
0.00014961821345228521,-0.0005345548719347449,-8.549963944099074e-6,0.1,0.0015139105329982948,-0.07838139495250104,0.045971956125096365,0.0
-5.8262877394300855e-5,-0.0001444369741540036,0.00052047089120938,0.1,-0.000974354777558445,-0.082210195568241,0.045813347691199595,0.0
-0.00040184893501991106,0.0002833187403278886,0.0006568941095730367,0.1,0.0007329914551847152,-0.07838854645200558,0.04573969405698488,0.0
-0.0003773099670308713,-0.0006663408491940387,0.00018474676797773496,0.1,0.0017889978240317173,-0.07804771146112346,0.04562346421593399,0.0
0.00043948056230336155,-0.0002086279518675658,-0.00013904903719182235,0.1,0.000547655624168657,-0.0806432349597074,0.045799075053688694,0.0
0.0006736747449094944,-0.00040069399058258523,-0.00047586421291284994,0.1,-0.00016360136619416774,-0.07867059568414557,0.04484602893755496,0.0
-9.718432868814076e-5,0.00048322222464514396,-0.00022072472492572518,0.1,-0.001416778046263051,-0.08106997605749787,0.045007023301916034,0.0
0.0003084515937667975,1.6099828696941207e-5,-0.00021260262716949065,0.1,0.0019393925691826841,-0.07900493106854155,0.04553574563611022,0.0
0.00032069299146427263,-0.0003822208685535807,-0.00013343371184193766,0.1,0.0011213775726716085,-0.08056519866785355,0.04488555772133874,0.0
0.00030698101969557574,-0.00023511063893464894,0.00023255114760763277,0.1,-0.0007005963297657792,-0.0820423402974305,0.04539906964409647,0.0
0.0004908358234809741,0.0006298672429820275,-0.00022574582956475534,0.1,0.000474105844731971,-0.07923417067993944,0.04500158765168158,0.0
-0.00017884938312612088,-1.4113418844782833e-5,-6.44947935402234e-5,0.1,0.0009038484999324186,-0.08149528706366037,0.04556130364214897,0.0
0.0002082767967498226,-0.0002660686150602474,-0.0006027356635686404,0.1,-0.0009112588064451255,-0.08107363463088295,0.0452057202525833,0.0
-1.9210941344452143e-5,-0.0002844075440868178,-0.0003789621645891436,0.1,0.0015931813132992886,-0.08017010053425298,0.044885427779412373,0.0
-0.0005960300227797552,0.00018761043692372902,-0.00021794133580703832,0.1,-0.000877949900139271,-0.08154655720229585,0.0450448562224834,0.0
-6.386470299008242e-5,-7.329031411638218e-5,-0.00016498134499891198,0.1,-0.0019835042190663277,-0.08282610196664342,0.045927770740880794,0.0
-0.00011819770526225313,-0.0005906476886879828,0.0003813853625579531,0.1,0.0005633739803322625,-0.07985642620335968,0.04616266981908289,0.0
-0.0005223712694092499,-0.0004016446678711543,-0.00028171728515647836,0.1,-0.0004414218081135154,-0.08113635454335993,0.045657546942545486,0.0
0.00045619255859593135,-0.0002370463321756438,0.0004045542334818196,0.1,-0.00015114425611410017,-0.07805677112482018,0.045864930382327876,0.0
-0.0001353574143338884,-0.00035632974236477193,-0.0003810908578832102,0.1,-5.729244622174843e-5,-0.07849692982298384,0.04553575436021275,0.0
-3.752308770828456e-5,-1.2938167667672349e-5,0.0004377956895010998,0.1,0.0018005475816293048,-0.08083746224208975,0.04501494299562633,0.0
0.00035709593207744467,-0.00048647707009299225,-5.589171887170376e-5,0.1,0.0016689843752256584,-0.08042589739814415,0.04580829968001514,0.0
-0.0002121261226347181,0.0003933203526309908,5.940667316661978e-5,0.1,-0.0005808688395594851,-0.08298697857168083,0.04518088905010535,0.0
-0.0005898895425676925,-5.708282548612069e-5,-0.0001398894078288906,0.1,-0.000814958834063777,-0.07811074703971466,0.04619230076058047,0.0
0.0006718697729536998,4.853793817131787e-5,0.00011845885056071867,0.1,0.00045502354620609244,-0.07812798044067133,0.045640980600803634,0.0
0.0005870548394531793,-0.0006582782894584629,-0.0002853134471233398,0.1,0.0020271605883915096,-0.07929970295367045,0.04583983060032965,0.0
4.587401213217772e-5,0.00040097235904446114,0.00047878048483438026,0.1,-0.0002860141786991859,-0.07880524572848013,0.0460243175969052,0.0
5.307624041472229e-5,-4.6469173182210026e-5,-8.64690476851897e-7,0.1,0.0005395083567104859,-0.07867210144953811,0.04597304473319522,0.0
0.000652840712105176,-0.0004555307071979531,-3.121976445151685e-5,0.1,0.0010769491952608515,-0.07915468968274449,0.045490263627272806,0.0
0.00040643671591010587,-0.0006599779787300176,0.0006285558872222265,0.1,0.0009330242677252113,-0.08235184259336716,0.04579601988241961,0.0
0.000628329394109275,-0.00038611029797419437,-0.00020853560562256412,0.1,-0.0016105164176749233,-0.08023297677119869,0.04620779923436539,0.0
0.0003992424132916282,-0.0006151851614503194,8.356004620895443e-5,0.1,-0.000530891675120468,-0.07870114441545915,0.045694553356986745,0.0
-0.0004191908330020379,0.0005287454440913794,0.00015403290658506217,0.1,-5.415986337723261e-5,-0.07825431196393544,0.04536694927802687,0.0
0.0006424641540884547,3.3527543540601145e-5,0.0005943703332877057,0.1,-0.001786482397030842,-0.08207174987906658,0.045776496723429524,0.0
-0.0005263002205234475,-0.00011730326201798374,0.00011751944932378072,0.1,0.0006363773727598525,-0.07890779747343508,0.046004940881988254,0.0
0.00011797125746405466,0.0006322326444587337,-0.0006035401435274253,0.1,0.00023614166978952028,-0.08233648532123297,0.04599849177227134,0.0
-0.00013434822629515377,-0.00018055022126910422,0.00020484581611829983,0.1,0.0014599452683525592,-0.08103671957755494,0.04518908761680822,0.0
-0.0005237861491043911,0.00029106172521618627,0.0003060156502000359,0.1,-0.0004864121285540353,-0.08091933102409395,0.04513676151020128,0.0
-0.0006184187429353551,8.718872658039128e-5,-0.00021341270015957234,0.1,6.142646969868773e-5,-0.0798148986384974,0.046060772974122505,0.0
0.000601005604092254,0.0004630499574572339,-2.619476813331381e-5,0.1,-5.295100938722959e-5,-0.08261074520736963,0.04554766383275195,0.0
3.60347459402776e-5,-0.00010630870872906828,-0.0005880083678109267,0.1,-0.0003221524571772387,-0.0792450450460874,0.045727435551569426,0.0
0.00040299203802938717,0.0005070537333129113,-0.00020101391895670099,0.1,-0.001357731827267764,-0.07830324825392923,0.04526170413471051,0.0
-0.0003108031631437663,-0.00022377196301770467,0.0006581761360557525,0.1,0.00102778428323792,-0.0825546435087023,0.046172846843931276,0.0
-0.0005195282874232026,-0.0004719047929470308,-0.0002632048656155537,0.1,0.0003464031554351527,-0.07944604664773611,0.045701082478853135,0.0
0.000233112499649692,-0.00027638911984642926,0.00045133678430035994,0.1,-0.0010658425269057601,-0.07903148890978005,0.04586407673641697,0.0
0.000278371220001611,4.520051852616387e-5,0.00034746484255394504,0.1,-0.00031523307233583263,-0.07868856716588725,0.04593736090354862,0.0
-0.0005332242044993756,-0.0004884109106651779,-0.0005623317160779885,0.1,-1.9218516298727622e-5,-0.08112179778149362,0.046020054673309774,0.0
-0.0004163262250771487,0.00011187358016810055,0.0003673617333023267,0.1,0.0005897268912525148,-0.08216532305407256,0.04503725527455317,0.0
0.0006259181515578146,-0.0001877619027141543,0.000130345017474505,0.1,0.0007225903783244906,-0.08069455116066267,0.045226316037781364,0.0
0.00030510692047252007,7.074952101511234e-5,-3.059256199835432e-5,0.1,0.0018111131848700074,-0.08065463941704051,0.0454166281412941,0.0
-5.555807628902822e-5,-0.00036365352667610797,1.5901089341931076e-5,0.1,-0.00019896515031664192,-0.08151368963484822,0.044896572178261436,0.0
0.00037852752048561915,-0.0005249154650930404,-0.0005076259395278851,0.1,0.0006957038457204288,-0.0830497042873541,0.04514436521801665,0.0
7.555867391565002e-5,-0.00024685065169766145,0.00048019058840590513,0.1,0.0015422030588353446,-0.07916607216541248,0.045109695538209274,0.0
0.0004430026801012815,-0.0005086794286098677,-0.0003795666064491466,0.1,0.0012636046654463022,-0.08284532447471245,0.045171646625248696,0.0
-0.000435202728647719,0.0006020339256545081,-0.0004378720688217963,0.1,-0.001581776280524615,-0.07936239797135057,0.0459465714563992,0.0
-0.0002627221157449794,0.0006391285918661401,-0.0004165438489082005,0.1,0.0009416260200982011,-0.07956823949219813,0.046187699641208314,0.0
-0.0002217735998326508,-0.0005626103156715953,-0.000272140659560057,0.1,-0.0007743093230811224,-0.08008776313377888,0.04501467026278177,0.0
-0.00032011232629085935,-0.00023965028967663587,-0.00013501370137219612,0.1,0.0015781769509798252,-0.08022312339918147,0.045926125522790705,0.0
0.0004905512299259356,-2.645678737649114e-5,-0.0002735756371527252,0.1,0.0009713962690003603,-0.07822074665456336,0.04488827057067903,0.0
-0.00011529904733716146,-0.00032831802149549584,-0.00043247497750681314,0.1,0.000746175348012311,-0.07979077477083274,0.04506123938928913,0.0
0.000480460784107891,0.00018211204236168256,-0.00021781883761580028,0.1,-0.00029202497348877044,-0.07810467596116773,0.04578035310708999,0.0
0.000635241374706606,-0.0005082445787581398,-7.411197336521334e-5,0.1,3.0593418176942194e-5,-0.08172114441377798,0.04495833641013159,0.0
-4.837689809528985e-5,3.056725529578961e-5,0.0006616650299079187,0.1,-0.001095615861844699,-0.07936294766766447,0.045512406935572056,0.0
-0.0002681135030194108,-0.0002992002840775958,-8.095634225792769e-5,0.1,0.001009934056764869,-0.08276672057680841,0.0453211310648548,0.0
-0.00020565934679681735,0.0004903916561958748,-0.00032345666113936164,0.1,0.0018025722431882223,-0.07908406399786289,0.04522888334516716,0.0
-0.0024019280258975187,0.0022208236270900264,-0.006274664863627679,0.1,0.0001276814820391561,-0.07939863441737802,0.044621169244374884,0.0
-0.0025090727866571155,0.002610202972686143,-0.0066127495386443915,0.1,8.61770503832974e-6,-0.08067353098631824,0.04421985128576688,0.7378033980582523
-0.0029368701288400465,0.0025747458086567243,-0.006479224679080836,0.1,-0.0018529073201740494,-0.08051433691916618,0.04489982164358857,2.2134101941747573
-0.0027334918453018465,0.002274412896476299,-0.006177534503691678,0.1,6.118190184601189e-6,-0.07952175117495999,0.044262917554451525,4.4268203883495145
-0.003249331451598727,0.003298890560074379,-0.0061007137898687405,0.1,-0.00087537817712964,-0.08217108767701235,0.04332480997052052,7.378033980582524
-0.0029536452046283026,0.0030259268512715055,-0.005831302174411496,0.1,-0.0016272222844539578,-0.0808369243701975,0.04375978233072863,11.067050970873785
-0.0037196451902599395,0.0027512806259731254,-0.006793826673905724,0.1,-0.000832150334781241,-0.07994129112119798,0.04315202476275524,15.493871359223299
-0.003490471304004909,0.0037614314553899245,-0.006091634142074564,0.1,-0.0009531348578131106,-0.07889965674245607,0.042269115080618896,20.65849514563106
-0.00410875009049352,0.003661055344369459,-0.005439899476173252,0.1,-5.656816363373476e-5,-0.08241940826588258,0.042787444419274824,26.560922330097082
-0.00439496161436162,0.003653197610602131,-0.0052641865936904194,0.1,-0.00032465057321319344,-0.07910338125592262,0.0422447060779585,33.20115291262135
-0.0038980972430283697,0.003559601338631864,-0.006112776406290005,0.1,-0.00037189183610307936,-0.07879374527777964,0.04208719626606888,40.57918689320388
-0.0036617688578715643,0.0036955063293722043,-0.005936189558095608,0.1,-0.00038040700809193574,-0.08235541304589612,0.04054003768221897,48.69502427184465
-0.004107763893836574,0.004290564686898428,-0.004865702176050911,0.1,-0.00020836983573397196,-0.07959876681143896,0.04135167365341474,57.548665048543675
-0.004486100914562931,0.004849302000218749,-0.004599601188710423,0.1,0.0019273666565620168,-0.08039017609515006,0.04056181361863637,67.14010922330097
-0.004850409738601166,0.004142474292099975,-0.005552734466879825,0.1,0.0019005435178479956,-0.07905181696848325,0.04015939440539341,77.4693567961165
-0.004341771260634713,0.004487243003862887,-0.004904979063692031,0.1,-0.00039280983061951337,-0.07927554454049646,0.04003887623175536,88.53640776699028
-0.004842563474181568,0.0044240074317314386,-0.004428351488661524,0.1,0.001578707701363755,-0.08160138715358521,0.03965817020275072,100.34126213592234
-0.005263715160690618,0.005259136681915871,-0.004778956952633946,0.1,0.0013376711350666579,-0.08005830372627179,0.03855226679332229,112.88391990291261
-0.005760461433296787,0.005065599314951832,-0.005037452643359299,0.1,0.0011644878459738859,-0.07905149152738575,0.038595431457304735,126.16438106796116
-0.005307691649907007,0.005246581160934924,-0.004942380672170768,0.1,0.0017181958099183482,-0.0804182114614659,0.03830185909494146,140.18264563106797
-0.0053549145095244935,0.00560160020594963,-0.003712640449361219,0.1,-0.00030353001508700927,-0.08203879355450074,0.038457071630095895,154.938713592233
-0.006058884103180326,0.005660541773188118,-0.003859296912090041,0.1,-0.0012804530292067292,-0.08031470563504356,0.0375414849096577,170.4325849514563
-0.00607203137214359,0.005019035990785448,-0.004350357638670548,0.1,-0.0006926504700518143,-0.080543208713841,0.03682724298174364,186.66425970873783
-0.006626124087282721,0.0055098118056001455,-0.0038259202351752096,0.1,-0.0010756179955973544,-0.0826484188089384,0.03706894146912251,203.63373786407766
-0.007020179370983557,0.00606093784919488,-0.003937206748180355,0.1,-0.0017235185931821968,-0.08259231098593281,0.03679978060102439,221.3410194174757
-0.006194869497132959,0.006529754965691173,-0.003942229981675702,0.1,-0.0006421276946301501,-0.07997193986326273,0.03595987266326622,239.78610436893203
-0.006121932947717973,0.006746459879511867,-0.003815542686547197,0.1,-0.0012044473091130116,-0.08169722133211901,0.035740136461144774,258.96899271844654
-0.007005552172475035,0.006179061038445036,-0.0030213280769791143,0.1,-7.811028744307796e-5,-0.07897784543513311,0.03557097242908214,278.8896844660194
-0.007419780153779819,0.006446726979843647,-0.003431529244018597,0.1,-0.00022392064920048196,-0.07906638681328318,0.035496880487221674,299.5481796116504
-0.0074828417185216585,0.006381346157153711,-0.003118490284706799,0.1,0.0007583165931039473,-0.07979390034464821,0.03419187888830038,320.9444781553397
-0.007781824737800731,0.006616043495258719,-0.0033603172990791267,0.1,-0.0010174176534106904,-0.08063297146654085,0.033975847600981796,343.0785800970873
-0.006815110411240769,0.006544420864203171,-0.0026994844159848428,0.1,0.0001844052086835978,-0.08185111873771131,0.03343453238271354,365.95048543689313
-0.007770733661505723,0.007431916102549535,-0.00277523621877402,0.1,0.0018067523047182103,-0.08195874848509906,0.033890413640169474,389.5601941747572
-0.0070891156525700215,0.0076635679348471,-0.00248246736405219,0.1,-0.00034700398140984415,-0.07854677114207677,0.03308349382678359,413.90770631067954
-0.007899452998230326,0.007019414911150945,-0.0022747510161455985,0.1,0.0006970596738233994,-0.07933646782137761,0.0323467367192261,438.9930218446601
-0.007973793669724323,0.007755604350913204,-0.0016829952777897281,0.1,-0.001165706471866206,-0.0805874932774899,0.03195855395237607,464.81614077669894
-0.008690256292556042,0.008036323871519124,-0.0013744467484438716,0.1,-0.0010394264866951562,-0.07993363377272573,0.03257773734206916,491.377063106796
-0.008381788577815748,0.008404005257992427,-0.0021070157263647455,0.1,0.0003208383962377964,-0.08007205915868336,0.031774970216960206,518.6757888349514
-0.008287054246541704,0.008130080589081707,-0.001208683584424577,0.1,-0.0002035374014780678,-0.07961536353952779,0.03086799342813833,546.7123179611649
-0.008342775371055416,0.00777177828765368,-0.0005604883551394893,0.1,0.002024427446540229,-0.07832979929505184,0.03050357392726157,575.4866504854368
-0.008900064710860557,0.008251674197104146,-0.0005779278216104507,0.1,-0.0007337734837715508,-0.08045304993639243,0.030973425759493828,604.9987864077668
-0.008325941189961675,0.008631688058016222,-0.0012222538008851403,0.1,0.0007230122738547256,-0.08197669570191722,0.02992537508365961,635.2487257281553
-0.009376209857073294,0.008749521237119775,-0.0010110463826901255,0.1,-0.0006315186884230183,-0.08058182260372966,0.029498230031701746,666.2364684466019
-0.009716215158653006,0.008898315298289817,0.0001709953363843214,0.1,-0.0018209971082680406,-0.08001008367373444,0.029736669843000618,697.9620145631068
-0.008876837818353864,0.009409205856441083,-0.0004513975140748996,0.1,0.0007664666348545976,-0.08291530077481912,0.02923252762656346,730.4253640776698
-0.009421650407466172,0.008615691556551161,-0.0005221412884677805,0.1,-0.0008009640180451998,-0.08060269558303408,0.029457904450042746,763.6265169902912
-0.009536971120578918,0.009737632216632605,0.000677544395800116,0.1,0.0015970347019130323,-0.0819766260955386,0.02888310643423629,797.5654733009708
-0.009448548275228537,0.009971887114077817,0.0002414459217624804,0.1,0.0007077793309394783,-0.07901970177423194,0.027610680658578447,832.2422330097087
-0.009359542011398223,0.010205527143274431,0.0003820536359130627,0.1,0.0011120368016350347,-0.08266681252691903,0.02847801677956428,867.6567961165047
-0.010604255145983482,0.00988260298541521,0.001295841729962496,0.1,-0.00020264902374636398,-0.08067187867722132,0.02711791401864189,903.8091626213591
-0.010551457295225278,0.009805365087468883,0.0002718178867495726,0.1,0.000383821482594594,-0.08099914745036467,0.027789270406924627,940.6993325242717
-0.009860709481507163,0.01039187283251815,0.0017442319984423244,0.1,0.0016651722078667736,-0.07836067204851523,0.027383025778602132,978.3273058252424
-0.01017100942095057,0.010837887738363817,0.0006216343902407596,0.1,0.0005904589326806277,-0.08114383250567725,0.02599191063110212,1016.6930825242717
-0.010281762165918999,0.010018187479028256,0.0020720172598989953,0.1,-2.053240543766775e-5,-0.08144168354630855,0.025774598888063154,1055.796662621359
-0.010016666689994418,0.010759836458158624,0.0012184518869509868,0.1,0.001872186615877625,-0.07858908031145295,0.025984320702077797,1095.6380461165045
-0.010300435681544122,0.011295162723400465,0.001609598636909359,0.1,0.0002941967869866059,-0.08088459165446861,0.024970100768708123,1136.2172330097085
-0.011259735006307208,0.010879627652304201,0.0014241127293830192,0.1,0.0005874748690063321,-0.07917646054920251,0.024750498764121977,1177.5342233009706
-0.011730131107393274,0.010615989204536075,0.0021236864881183756,0.1,1.8310276796831853e-5,-0.0817865908248264,0.02474288081615327,1219.589016990291
-0.01135592516504638,0.011240428659497934,0.002126988240983037,0.1,0.0003476759381978018,-0.07881770549728682,0.023906761419613346,1262.3816140776694
-0.011829017036786753,0.010722879755076133,0.003382043187754607,0.1,0.0008124503014808665,-0.08217363329671312,0.02420169366121242,1305.9120145631066
-0.011280055259438872,0.01107702622842552,0.003174988068685025,0.1,-0.0006607165239563333,-0.08135876871254406,0.02392959647802731,1350.1802184466017
-0.011128298673628636,0.010952376916377,0.0029401781881763186,0.1,-0.00026246946827288904,-0.08251788570806252,0.023338983615977374,1395.186225728155
-0.011354604653531088,0.011941978129282285,0.003167826031394919,0.1,-0.0016985637552592117,-0.0796641381768771,0.02351070440755326,1440.9300364077665
-0.01229797348442294,0.011536338069657398,0.004044977519554787,0.1,0.0015767527047766223,-0.07972036471535224,0.022148964714143984,1487.4116504854364
-0.012605101900812299,0.012058082925636072,0.0035783450642909004,0.1,-0.0019225555816410216,-0.07834994434096719,0.021773940501457395,1534.6310679611647
-0.011934953810155689,0.01219677193263703,0.0035892808128946884,0.1,0.0015558699372437226,-0.08214645472186462,0.021798777490552913,1582.5882888349513
-0.01156884840187668,0.011593648400048982,0.004092200708276199,0.1,-0.0007797671809941283,-0.07964126375653151,0.021864674965240166,1631.283313106796
-0.012899851877878635,0.011919694876906604,0.004190784956703892,0.1,-0.001197005630454192,-0.08166829591735242,0.020642227123442672,1680.716140776699
-0.012558938653540627,0.01285136100488763,0.004478485815920146,0.1,-1.8161463720408214e-5,-0.07868085947179917,0.021330595370290233,1730.8867718446604
-0.01241324940224677,0.011737602858423206,0.005324718732416618,0.1,-0.0011441066033135228,-0.08026454566360991,0.020685548465250076,1781.7952063106795
-0.012277964038254539,0.012904595405735218,0.004678884517465162,0.1,0.00033000632355683355,-0.08070763113653512,0.01984820482790855,1833.441444174757
-0.01272934122644992,0.012966825345515047,0.004751330356285377,0.1,-0.0012707091171851501,-0.07904528346221637,0.02006950005584208,1885.825485436893
-0.012371679836269345,0.013162249376341308,0.005887310769768626,0.1,-0.0009381026545963239,-0.07943147281559794,0.019030439070854256,1938.947330097087
-0.013230031419135278,0.012936605868299832,0.0053676106165259484,0.1,-0.0015012531742995023,-0.07886948066163058,0.019524308407353308,1992.8069781553395
-0.013046780749076236,0.012673854298395461,0.006500747328135206,0.1,-0.0013157655651787063,-0.08034833807117871,0.018822172127548248,2047.4044296116501
-0.01355588276306906,0.013526545572749349,0.006521902500285671,0.1,-0.0012235314419826136,-0.08113097703336494,0.018299635729040354,2102.739684466019
-0.014036972833383753,0.012431541585695574,0.0060156813448535296,0.1,0.0008925792179499976,-0.08260467372911354,0.018490478911718587,2158.8127427184463
-0.0140449805729013,0.013055805429150937,0.006085027805483651,0.1,0.0005378009974482988,-0.07889755899498097,0.0175540818470816,2215.623604368932
-0.013245475062670596,0.013106201513035884,0.006943265964750448,0.1,-0.0014419411683037522,-0.08061481274869096,0.016569992687769056,2273.1722694174755
-0.013233325641577537,0.013340180164034765,0.007859501992963779,0.1,-0.001368279692073473,-0.08106770674181409,0.017050684302811984,2331.458737864077
-0.013479001315510886,0.013518262064078771,0.006929674696609587,0.1,-0.0008343106165192537,-0.08274051716822364,0.01651524934969123,2390.4830097087374
-0.01439431105377111,0.013680185759191728,0.007351494207415682,0.1,-0.00010719762669601916,-0.07878357121292819,0.01583396521881039,2450.245084951456
-0.014257961282603917,0.014032656673296525,0.007648465693592173,0.1,-0.0006629161312876051,-0.08273040529026461,0.01525179639310862,2510.7449635922326
-0.013758995326835973,0.01313843376398176,0.008389861529530552,0.1,0.00010348273047554157,-0.07915240534047509,0.01510832374509785,2571.9826456310675
-0.014555998230713666,0.013776381233346777,0.008171886970280874,0.1,0.0011510591196372052,-0.08046413815496065,0.015272363361975343,2633.9581310679605
-0.014701863989239646,0.01331074542644526,0.009239631670336416,0.1,0.0007376220796911611,-0.07983724992470076,0.014690675709614489,2696.671419902912
-0.014064554031219964,0.013287318663600244,0.008676069996132565,0.1,-0.0010517505145136894,-0.0798082362814068,0.013851870638653138,2760.1225121359216
-0.014983339156943967,0.014374906272712788,0.009689549990759397,0.1,-0.00011475126967497008,-0.0805963854986242,0.013706641458677143,2824.3114077669893
-0.014614669383106687,0.013972933993045843,0.009202697508175685,0.1,0.0019146626396401396,-0.08128991009339406,0.014161580918093471,2889.238106796116
-0.014796529834033297,0.014624977246858663,0.009424756086269519,0.1,0.0007456776008487949,-0.07987784323120853,0.013777178664902585,2954.9026092233003
-0.014636476851084487,0.014668873932415677,0.009261360058093762,0.1,0.0005267573734153725,-0.08248759156388104,0.01264692818254335,3021.3049150485426
-0.015553886966384014,0.013806741280057948,0.010786604941847674,0.1,-0.0006098925990062256,-0.07881441070915132,0.012149116475664622,3088.445024271844
-0.014928594807443272,0.013569967657916099,0.010861855642251205,0.1,0.000621580053816865,-0.0828526188706758,0.011463541410803281,3156.322936893203
-0.01605343134828382,0.013960036239505234,0.010164082162803092,0.1,0.00028818838353901287,-0.0811389976273153,0.012160711788834365,3224.9386529126205
-0.01520998225901606,0.014850256819652704,0.010299899910201494,0.1,0.0007280803388762906,-0.07933445352428724,0.011166147305791723,3294.292172330096
-0.016263365629485372,0.014558530713020492,0.01065817863626418,0.1,-0.0003475413771105048,-0.08040705287263208,0.01050560409418146,3364.3834951456292
-0.01566086482085106,0.014169222012475363,0.011137311960691608,0.1,-0.0017203401935200074,-0.07824841014803889,0.010795592430473943,3435.212621359222
-0.01549134082821748,0.014135147849086153,0.012182442901606744,0.1,0.00022028885588966637,-0.07825206393458359,0.010227304688740784,3506.779550970872
-0.01625915771958366,0.01386238276637862,0.012644437801012936,0.1,0.0019710957497316374,-0.07914349950126212,0.00983714485271777,3579.084283980581
-0.015768430116994032,0.014047142003138377,0.012593511537446667,0.1,0.0015201914948063525,-0.07951590888208498,0.009372158917520525,3652.126820388348
-0.016489743138928748,0.014038215295406114,0.013020563769150739,0.1,0.0003847604462793679,-0.08166662654272962,0.008893174052040136,3725.9071601941732
-0.016891632798883224,0.014340503500851538,0.01230167060250761,0.1,0.0018281324084934844,-0.08238675587931217,0.009453390194243969,3800.4253033980567
-0.016104510450786338,0.014249379148780186,0.013168356661532722,0.1,-0.0010957421723839442,-0.08018179011682326,0.008301059638122537,3875.6812499999983
-0.016847486579925092,0.01435848279118045,0.013024015851817086,0.1,-0.0017771169212171965,-0.08213499933591123,0.007520503442877801,3951.674999999999
-0.01733293617915151,0.0147300500749354,0.013080559593092067,0.1,0.0005473015321162675,-0.08156594245339992,0.008373708043305337,4028.4065533980565
-0.016804532103369692,0.015167745482827039,0.01434835822379846,0.1,-0.0009841880175381168,-0.07882752044478467,0.006896046188419942,4105.875910194173
-0.0175557223514856,0.014924274525621136,0.013466025575825524,0.1,0.0008368436760014471,-0.08232886812489848,0.007254687532400341,4184.0830703883485
-0.017111317497502266,0.015064088139528871,0.014514536026921921,0.1,-0.0005391008329975653,-0.07965831965923699,0.006545031764793707,4263.028033980582
-0.016847503673344765,0.015402640411854083,0.01495566580605244,0.1,0.00090441814260977,-0.07852547173254824,0.006635804186103262,4342.710800970873
-0.017306606291494667,0.01436865377602103,0.014567980111919957,0.1,0.0006243316668235889,-0.07966489854915712,0.006302259450109042,4423.131371359223
-0.017703172514458746,0.015314570535725705,0.015700565473086927,0.1,0.0007068627406520396,-0.0788032792024188,0.005789527272483322,4504.289745145631
-0.017573993435779877,0.015216852926053941,0.015324128416892074,0.1,0.0002657896542593487,-0.08220337296084503,0.005597989400153597,4586.185922330097
-0.018192354610543523,0.01539185673714857,0.015422160905867142,0.1,-0.0005075763754905951,-0.07884289495896261,0.004684412236511153,4668.819902912622
-0.018021206959034957,0.01460527668600459,0.015775726695093792,0.1,-0.0008306053099867821,-0.08256003955094769,0.004779631491221724,4752.191686893204
-0.017984381180959512,0.015185902478326357,0.016137758102434407,0.1,-0.000986912502087699,-0.08027375051765563,0.004918898940894815,4836.301274271845
-0.01784215573864028,0.015396455586451885,0.016289480636241475,0.1,0.0008974658906643321,-0.07870246026028523,0.004468833860684169,4921.148665048543
-0.018307571199436767,0.015200391876845161,0.017257779671789812,0.1,-0.0006407307099936724,-0.0805368784977108,0.002972727508533409,5006.733859223301
-0.018967061192813484,0.014493892734901018,0.016522068384773943,0.1,0.0017404668411221407,-0.08212100311001723,0.0033127802863034575,5093.056856796116
-0.01941374926355757,0.015294916822706645,0.017555267206847646,0.1,0.0012547229401177764,-0.08015869996038036,0.0032603540608914724,5180.117657766989
-0.01870230865715656,0.014767703345726892,0.018084243802157035,0.1,-0.0011075028700178425,-0.07812862896326703,0.002269685184897408,5267.916262135921
-0.019411667708100683,0.01479690605300534,0.017839227379941716,0.1,0.0018901461755362102,-0.08103290594096259,0.002241838960416036,5356.452669902911
-0.01854402901485741,0.015281910385186165,0.01812536261187086,0.1,0.00029131673057078455,-0.08286977797964996,0.0021997881936561938,5445.72688106796
-0.019149306289038787,0.014142007977660546,0.018633166052074365,0.1,3.0015821792300767e-5,-0.08287353092828215,0.0007044968291404338,5535.738895631067
-0.019563379359709473,0.014496667350087289,0.01912742096212821,0.1,7.240200681374416e-5,-0.08219238336100691,0.0014223005778095702,5626.488713592231
-0.018946677398982918,0.014019790594369344,0.019339281463879872,0.1,-0.0017187511967722542,-0.08090905658267522,0.000176584760451521,5717.976334951454
-0.019264871845101627,0.014994121768432409,0.019377606914306955,0.1,-0.000712610685618285,-0.08068922366997909,-1.8329194790882622e-5,5810.201759708736
-0.019117986609376438,0.014245555658061933,0.019320525495270663,0.1,-0.0013894869715344862,-0.0795629786070596,-0.0005119469498642596,5903.1649878640765
-0.020410543423635682,0.013806668359207283,0.020698389495494462,0.1,0.00037027796938690757,-0.08079742601117647,-0.00032971110180091286,5996.8660194174745
-0.019465042631008386,0.014835409589820069,0.019841170302561342,0.1,-0.001190415450847926,-0.08141026013166552,-0.00031618082066467115,6091.30485436893
-0.02044770415416842,0.014362029550923902,0.02064129932465225,0.1,-0.001602084826058376,-0.08197052451569473,-0.0012222724901715934,6186.481492718444
-0.020875869764908614,0.013739757942833223,0.021087378123596567,0.1,0.00017206013197457743,-0.0815708950062081,-0.0011778504716364233,6282.395934466018
-0.02092840858384421,0.01385447233071865,0.021753841923816505,0.1,-0.001056909538262774,-0.08263341227558961,-0.0015004305114994856,6379.048179611648
-0.0207426441238785,0.014504082882971406,0.021613607379952233,0.1,0.0008394074006668318,-0.07833192451020102,-0.001922043691794742,6476.438228155337
-0.020354424394861747,0.013468681775832155,0.021879833568004506,0.1,0.0014374447987687638,-0.08118243877333697,-0.002354335008103038,6574.566080097085
-0.021337998143235417,0.014594544502176876,0.021819129639287307,0.1,-0.0004469000089464672,-0.07992448926181957,-0.0030829589652988576,6673.43173543689
-0.02110809288742429,0.013583496020510741,0.021729188273873767,0.1,0.0007143290657403967,-0.08286131841876032,-0.0028519148237526842,6773.035194174755
-0.02150466768530463,0.014453342562716855,0.02221796750435837,0.1,0.0015653442359779644,-0.08081893390442996,-0.0037132613689797975,6873.376456310677
-0.021308209587454097,0.014023879560395858,0.022378430766898712,0.1,0.0005092957503176948,-0.0783459219476779,-0.0035640867524675706,6974.455521844658
-0.020992497317827517,0.013884209972896614,0.023775394515096932,0.1,0.000434916712665214,-0.08261275652830712,-0.0040290376455756945,7076.272390776697
-0.021618002911802395,0.01389530827408642,0.02418735130063137,0.1,0.0019435956969007788,-0.08028107993165594,-0.004539852424674493,7178.8270631067935
-0.021081339586267473,0.013495237244370458,0.024158567878520068,0.1,0.001193610189267087,-0.08246125489083145,-0.004493222389366876,7282.119538834949
-0.021740191261475906,0.012865360988679195,0.023583392650372053,0.1,-0.0007572637641814335,-0.08208198875558415,-0.005133521142067602,7386.1498179611635
-0.021640987342351765,0.013456979350870108,0.02473616541164526,0.1,0.0017630872183813165,-0.0820647321734546,-0.005529540357959146,7490.917900485434
-0.022305786410709662,0.012659107523959046,0.02441510228710074,0.1,0.0009123104571328659,-0.08012913842996715,-0.006459309706514964,7596.423786407765
-0.022044003667655757,0.01269064499189565,0.02559860703063229,0.1,-0.0018251171880523493,-0.07944928283922502,-0.006292039299746438,7702.667475728153
-0.021912692578734037,0.012994833396659078,0.025906928217752354,0.1,-0.0006949817758749616,-0.07848080903867376,-0.00738028246695934,7809.6489684466005
-0.022734895210455946,0.013309355187717675,0.025114205087061733,0.1,-0.00188424904021141,-0.07851394752418396,-0.007530788885959694,7917.368264563105
-0.022071464805307528,0.01288860324011225,0.025489047878229244,0.1,0.0009680538253341197,-0.08057940818750885,-0.007523038800761338,8025.825364077669
-0.02218656634976048,0.012177852586171364,0.026418922279012328,0.1,-8.461607740329013e-6,-0.07921082826635943,-0.007930434367104772,8135.02026699029
-0.022911434025657564,0.013032944073054328,0.026907776848861895,0.1,0.0003784029352345604,-0.07906614617780268,-0.00839073184736251,8244.952973300971
-0.023147613207151838,0.011916524176746079,0.02727961987028353,0.1,-0.0005585714989889245,-0.0783959250143625,-0.008770224833101626,8355.623483009707
-0.02254493958627541,0.012462192622951585,0.027148884446519212,0.1,-0.0017300486691989793,-0.07824639024166624,-0.009646877059320708,8467.031796116504
-0.023241511481962806,0.01262362446112354,0.02734449270215837,0.1,-0.0006080114139069016,-0.07925226253621336,-0.009144627520004096,8579.177912621359
-0.022957438123675858,0.012472451093387854,0.027587824422187584,0.1,0.00010552085277515334,-0.08247179259944643,-0.010058312549476521,8692.06183252427
-0.023532702319034485,0.011325716104410292,0.02834726331306291,0.1,-0.0006021634460428534,-0.08271897030747062,-0.010331077280840975,8805.68355582524
-0.02375554748740166,0.011635749341058267,0.02792957370033609,0.1,0.0016796559559263062,-0.0817098661692217,-0.01011547696183797,8920.04308252427
-0.02350693965702763,0.012236352481460112,0.028991035546329643,0.1,0.0009314891481324425,-0.07834903378133663,-0.01103464628656091,9035.140412621357
-0.02328749272699424,0.011715995728892478,0.02946402181678819,0.1,-0.0016406054214262056,-0.0811411144119229,-0.011426905557926933,9150.975546116502
-0.023857780972608024,0.011368867590491546,0.029523221416038765,0.1,0.0019398499021061255,-0.07954981628697781,-0.012007536757474247,9267.548483009707
-0.023902564837463097,0.01096847689652326,0.02925994198472803,0.1,-0.0017890335588127233,-0.07843893631236858,-0.01179139716111089,9384.859223300968
-0.02448406345437364,0.010685245530083449,0.029487402095583988,0.1,0.0005024475392783788,-0.07967960470248875,-0.012388745542161156,9502.907766990289
-0.024234023223132745,0.010887938210921272,0.03046612751730152,0.1,-0.0004913447805789383,-0.07835457235374921,-0.01265729044498907,9621.694114077667
-0.02400971767601557,0.011090164315550852,0.030737260728030118,0.1,-0.0016745026444424675,-0.07930337874230144,-0.013552038661678098,9741.218264563104
-0.023982049232913673,0.010708732127248913,0.03152029767804125,0.1,-0.001965206639389392,-0.08283117034667697,-0.012984667218875501,9861.480218446599
-0.024900234979166484,0.010486241121555221,0.031149934156021374,0.1,-0.0005387430470935448,-0.07895094635313864,-0.013092848887445045,9982.479975728153
-0.024923358284576216,0.009785727523215229,0.03207148525345644,0.1,-0.002022945800822658,-0.07882586699996857,-0.014125952209822955,10104.217536407765
-0.02478789365070093,0.00939334837530724,0.03139236716268098,0.1,0.0011124541471846281,-0.08101616397421431,-0.013898660649327974,10226.692900485436
-0.024646457759787663,0.010256338050455734,0.03291164503634877,0.1,0.0016739738227614443,-0.08170071787139346,-0.014337931637309074,10349.906067961163
-0.025851651115139963,0.009263275179753911,0.03294272215297285,0.1,5.2870501419636715e-5,-0.08094290655611619,-0.015780724120024882,10473.857038834949
-0.025577249720180776,0.009465073115484723,0.033135345697996955,0.1,7.287375091332413e-5,-0.08109666615123447,-0.01596382008987079,10598.545813106794
-0.02541843370539067,0.00893932396868217,0.033144268038709804,0.1,-0.0008178577376410272,-0.07975613893502868,-0.01634016694884375,10723.972390776697
-0.025292960892454877,0.009158540633906606,0.03418741766849443,0.1,-0.0004942387727406158,-0.07979530248271766,-0.015581268808930777,10850.136771844658
-0.026280030470805037,0.008862459307680086,0.03371946674797803,0.1,0.001365182293019127,-0.08208313178641793,-0.016334480877216555,10977.038956310678
-0.0257870471888087,0.00924059216312444,0.03365196996398356,0.1,0.000127261276530134,-0.08094984229422317,-0.016804357810949598,11104.678944174757
-0.026081690877584787,0.007722574629127778,0.03461884213146929,0.1,-0.00017849482160766863,-0.08074999782668485,-0.017852388632610953,11233.056735436892
-0.02685267205840016,0.007915462313838944,0.0346224802258912,0.1,-0.0011440771825973293,-0.08001594616673248,-0.018199362720424012,11362.172330097086
-0.026801983979615678,0.007556689169634147,0.03530477668841811,0.1,-0.001924088655094001,-0.08062441339743487,-0.01789106831689297,11492.025728155339
-0.026496951020398552,0.008008995882028615,0.03542189805424222,0.1,0.0016779250662616759,-0.08249877795572082,-0.018608277765266964,11622.616929611648
-0.026014316733518922,0.007505632172800777,0.03631978495212441,0.1,-0.0010059916980633503,-0.07857260598042261,-0.018327912333244677,11753.945934466017
-0.027093852867278535,0.007648330383914507,0.03647378477476791,0.1,-0.0003234462068250309,-0.07865852407396047,-0.019104624849334187,11886.012742718443
-0.02633776333865841,0.007065634781974807,0.036683783998560225,0.1,-0.0006251271947601237,-0.07905877247438155,-0.019981764002782593,12018.81735436893
-0.02756296996598368,0.007097626374022902,0.036492578231322674,0.1,0.0016553558096362574,-0.08190671572973406,-0.019907705712318115,12152.359769417473
-0.027751604025042693,0.00681212447978482,0.037495408439073265,0.1,-0.0006519401247338061,-0.078045040422804,-0.020795210640331633,12286.639987864075
-0.027194178181927476,0.006788725395471077,0.03749342363095838,0.1,0.00035675198012697555,-0.0824754718452678,-0.020341313659809422,12421.658009708734
-0.027236007627242965,0.0064324571338488234,0.037085678367729226,0.1,0.0005709165811781623,-0.08251196158934963,-0.0201888702004042,12557.413834951452
-0.027603393202248503,0.005847334052630176,0.03811006437485178,0.1,0.0013306434184015004,-0.08114036245040737,-0.020826664303247745,12693.907463592228
-0.027567543321208265,0.0049732189469746104,0.03868262964479079,0.1,0.0016967036363749735,-0.07958609892148485,-0.02173255926301061,12831.138895631064
-0.02784610382784335,0.0052074238644536025,0.038667474722383154,0.1,-0.0015201912516418748,-0.082441036490474,-0.022320696938595775,12969.108131067956
-0.027694555366984095,0.0048700457487468015,0.03960887290168896,0.1,-0.001643836102437734,-0.08282925345072756,-0.021802453247684598,13107.81516990291
-0.027503675644257146,0.004125801649186393,0.03996015324288672,0.1,0.00169276450343199,-0.079454662981216,-0.022003058550315605,13247.26001213592
-0.028495039720225948,0.0049411466579677476,0.038991410108547,0.1,0.00045963267307077193,-0.08269336031535274,-0.02294432217526117,13387.442657766987
-0.027807251392962938,0.003971391850144177,0.04049105295424787,0.1,1.898215049312789e-5,-0.07916741329414656,-0.023534540291184052,13528.363106796112
-0.028298121442223156,0.003183046849139056,0.04089777335672971,0.1,-0.0007161114898207762,-0.08003323702780402,-0.023712997227524433,13670.021359223298
-0.02789367869696946,0.0036372628010769765,0.040045207808730394,0.1,0.0009376021556689644,-0.08297876361719755,-0.02354569454404936,13812.41741504854
-0.027919503719204493,0.003779690467491002,0.04083009663844274,0.1,-0.00036369097222152373,-0.07886486491766906,-0.024401228262022148,13955.551274271842
-0.028457497625147602,0.0029600366637681044,0.040708877124255166,0.1,-0.0016433842393342565,-0.08114194153836102,-0.024569137613520087,14099.422936893203
-0.02862629856206978,0.0024348995160196106,0.041254541965408266,0.1,0.0006569161668456002,-0.08248925650847283,-0.025359507101080408,14244.032402912619
-0.029196576701949768,0.002066329648003764,0.042351160923689374,0.1,-0.0009645480125417817,-0.08277854850257642,-0.02545241962991778,14389.379672330095
-0.021188234448000973,-0.003004324333169088,0.02020343886239519,0.1,0.00040143447789341337,-0.04040746245435689,-0.025240945585387253,14535.46474514563
-0.020309847705977768,-0.01442862440316468,-0.001666019672160405,0.1,0.04369167870954214,-0.007351969890561664,-0.025746510295065368,14682.287621359223
-0.021216336410099092,-0.025902214594880613,0.0005376050328561425,0.1,0.08527722364495262,-0.013505388661750047,-0.025765022166767678,14829.848300970873
-0.021332289494928658,-0.025666323763885265,0.0016090541885331894,0.1,0.08644938591215819,-0.01109661890393459,-0.026825765443730862,14977.408980582522
-0.020483192724810088,-0.025750043103528405,0.001796602356027521,0.1,0.08613889780927371,-0.014080508231913019,-0.02647332694039878,15124.969660194174
-0.020372998908007544,-0.025589115108026195,0.0018341459711358854,0.1,0.08413070285733412,-0.01014700955577646,-0.025810096322255307,15272.530339805824
-0.02067798820127827,-0.025514293515149417,0.001956749428452182,0.1,0.0868650118790986,-0.011453257632680274,-0.026744666889183668,15420.091019417474
-0.020934474187531277,-0.025400315165787314,0.001398560298636686,0.1,0.083221026450261,-0.013885891057269652,-0.025706400920626708,15567.651699029126
-0.02037974248285317,-0.02531533907253958,0.0018515858439461569,0.1,0.086406949960888,-0.01050950631543081,-0.02553847295154147,15715.212378640776
-0.020906508992352336,-0.025953529957541372,0.0020648673792053054,0.1,0.08379693621049576,-0.011438874240087259,-0.026221150179567842,15862.773058252427
-0.020688871020837045,-0.026334812122384133,0.0014994506950335028,0.1,0.08518940553437804,-0.014248735253244101,-0.02643965394845804,16010.333737864075
-0.020236606403355558,-0.025566018819873332,0.001681782168680947,0.1,0.08647148687721352,-0.012386518866979015,-0.026695109303909604,16157.894417475727
-0.019797290302494344,-0.025408756358029173,0.0016440661747477154,0.1,0.0841479928671134,-0.011280125075999665,-0.02674310048926864,16305.455097087377
-0.01942600911327065,-0.025583978052084306,0.0023450140332015746,0.1,0.08462051142655361,-0.014082918927264765,-0.02600204744870465,16453.01577669903
-0.020057808057836534,-0.02545098818539044,0.002016229444915422,0.1,0.08313628575170608,-0.014014123280079664,-0.026304943022963566,16600.57645631068
-0.020094594071214684,-0.02583067774484548,0.0024875328817289596,0.1,0.08694142702945473,-0.013997649604083142,-0.026616507032092448,16748.137135922327
-0.01971790014881258,-0.026550936950504995,0.0022785510856375155,0.1,0.08424438636808466,-0.011954529582897328,-0.02629737616940936,16895.69781553398
-0.019046145661893388,-0.026386499328052565,0.0016961386630500155,0.1,0.08588449143275724,-0.011320253606557964,-0.0266095922473055,17043.25849514563
-0.019654266765272085,-0.026036916438909423,0.002640656088124889,0.1,0.08456039121502641,-0.013421818139009611,-0.026053076240234112,17190.819174757282
-0.01892504702825886,-0.02569204317225546,0.0020251420488067045,0.1,0.08474884667121026,-0.010927509712771209,-0.026686058104939684,17338.37985436893
-0.019835916914203295,-0.02663818512585186,0.0024235058874543065,0.1,0.08324018506393759,-0.009569745398619827,-0.026608387684850878,17485.94053398058
-0.019665622222173298,-0.026169805530669225,0.0024265207012504285,0.1,0.08624847415687759,-0.012816413638158282,-0.026485392179982824,17633.501213592233
-0.019062982069113412,-0.025626827903098386,0.0031044017517180777,0.1,0.08621981098605058,-0.013501686351663135,-0.025740899905338458,17781.061893203885
-0.018644400554659147,-0.02660089429620758,0.0028309045123341516,0.1,0.08673999642212307,-0.013475646684798363,-0.026227446690137466,17928.622572815533
-0.01908755555002306,-0.026256629242292853,0.002953886945235485,0.1,0.08647553209693573,-0.012959437696856433,-0.025673060159863422,18076.18325242718
-0.018943148315309383,-0.02654431456790767,0.002375453662855003,0.1,0.08322447237841595,-0.009675826965929031,-0.02577847864882847,18223.743932038837
-0.019509575659406846,-0.025945622483966146,0.0026374136065440666,0.1,0.08626076545826059,-0.00973197685158609,-0.02588117941195313,18371.30461165049
-0.019002197650589775,-0.026549901094790888,0.003463495088618019,0.1,0.08455485735945537,-0.009890623386886383,-0.02686157362923334,18518.865291262136
-0.018441885729754855,-0.02579286014907012,0.0027533745728957637,0.1,0.08569559910834522,-0.010583455554184431,-0.02569065267127182,18666.425970873785
-0.019160401375579863,-0.02587428247914447,0.003260963367736045,0.1,0.08440304484683933,-0.0101062437131729,-0.026799566322192686,18813.986650485436
-0.01876230470440914,-0.025417735400588407,0.00255082769908827,0.1,0.0863479498886894,-0.012874055845125689,-0.026775641877504273,18961.547330097084
-0.018189339803973748,-0.026588053013292624,0.0029284531155264848,0.1,0.08505963280480144,-0.011088732917685248,-0.025856522559528774,19109.108009708736
-0.01815961826533859,-0.026122255866607526,0.0035221726008911633,0.1,0.084469690343464,-0.012798705768695419,-0.026540081487515216,19256.668689320388
-0.017950430163193243,-0.026632472775092446,0.0034780791037242534,0.1,0.08374133391057788,-0.011381445134268186,-0.026598038588947777,19404.229368932036
-0.018129877221219896,-0.0265900621589755,0.003192519112500289,0.1,0.08337372192329491,-0.011246648451453315,-0.026079259340681317,19551.79004854369
-0.018590297123379822,-0.02601731884649181,0.003760913690980774,0.1,0.08657015016133165,-0.009151820220870004,-0.02621679768991656,19699.350728155343
-0.017516089257810754,-0.02628021106428727,0.0036366829118237637,0.1,0.08610568110071819,-0.01371917929344827,-0.025791379905104616,19846.91140776699
-0.018372376281019422,-0.026408820448536836,0.004129359362464692,0.1,0.08428576071882679,-0.012991212546067743,-0.026340922664702587,19994.472087378643
-0.017371633017383387,-0.025414269374549263,0.0035102483715416075,0.1,0.08648237016430567,-0.010103243260728095,-0.026852018772760493,20142.032766990294
-0.0175187019689749,-0.026449315075016255,0.0038477621998151013,0.1,0.08538485027218184,-0.012768127713537225,-0.025653732791754202,20289.593446601946
-0.018060830348458425,-0.026280875392368685,0.0034597866781408775,0.1,0.08439685639446039,-0.009366988494788687,-0.02560754326427951,20437.15412621359
-0.01721151793152275,-0.026343049674659096,0.003622086125832563,0.1,0.08632799836441855,-0.012082386061354124,-0.02636104869372237,20584.71480582524
-0.017351217444064693,-0.025949282615094885,0.0033735330118589927,0.1,0.08255826255864014,-0.009589683798485816,-0.026530476110612974,20732.275485436894
-0.018041781578060304,-0.025739294842353957,0.004382886625644507,0.1,0.08607647561987718,-0.011318011230742053,-0.025504049680129242,20879.836165048546
-0.017386479354516093,-0.025946966001223568,0.003442683441193064,0.1,0.08272312935100273,-0.013400478159392624,-0.026643104351166978,21027.396844660194
-0.017100516533067472,-0.025450527515772144,0.00430970884815031,0.1,0.08233669438507808,-0.011436483107882589,-0.025722405174934095,21174.957524271842
-0.017380226147708143,-0.025858140998280557,0.004162099344278509,0.1,0.08505374664825201,-0.012364581008097392,-0.026571320911509308,21322.518203883497
-0.017453435837729403,-0.026373687439330655,0.0038610581265751394,0.1,0.08240645620471447,-0.009538581052660198,-0.026345454056189595,21470.078883495145
-0.017557031259547252,-0.026375078291009896,0.0038832236848495884,0.1,0.08596178689440657,-0.009557500620093801,-0.026774862674627496,21617.639563106794
-0.01657871254032698,-0.026462407187463767,0.0037418365909796083,0.1,0.0829079045429899,-0.012743656149199683,-0.02637750830417989,21765.200242718445
-0.017305672954020083,-0.025386911174600357,0.004839124813331375,0.1,0.08311206787815655,-0.010797480410942906,-0.026805672821846455,21912.7609223301
-0.017059530848831383,-0.02656604405178435,0.004798918219271652,0.1,0.08464537527848164,-0.012281854192320089,-0.026753883554281686,22060.32160194175
-0.01675576805317774,-0.026496685853805064,0.00465151890760429,0.1,0.08535478612900176,-0.011804869398561494,-0.026555462868195816,22207.8822815534
-0.016895013910518408,-0.025788140564601228,0.005058686920177216,0.1,0.0858883570773222,-0.009242127067351913,-0.026399923512644342,22355.442961165052
-0.017227439009707458,-0.026146526989145914,0.004365985163533919,0.1,0.08591397326410057,-0.010736399142255004,-0.026103656900033804,22503.0036407767
-0.017111053054672053,-0.02543954855685605,0.004614030624680359,0.1,0.08455492461523618,-0.011785533656448622,-0.026716652136382198,22650.564320388352
-0.017021646029621987,-0.025608741818659842,0.004011050286165962,0.1,0.08552382635080583,-0.012847823923975746,-0.026164754266409247,22798.125
-0.01686950006468601,-0.02526142846978541,0.004967827865112137,0.1,0.08228122974189254,-0.01120559962701108,-0.025957601580151066,22945.685679611648
-0.016015663665822442,-0.02544727613233962,0.004898383394250163,0.1,0.08207628443901926,-0.012974635207868145,-0.026267245136314732,23093.2463592233
-0.01590506412841808,-0.025343027181943173,0.00464370760310136,0.1,0.08368860314189303,-0.009243149374077341,-0.025888172819051293,23240.807038834948
-0.016181078947049798,-0.02619176658008845,0.005238079920786292,0.1,0.08378741456980421,-0.01268547844666138,-0.02675920561055088,23388.3677184466
-0.015786339113002496,-0.02617433343308296,0.00476565186636608,0.1,0.08342264191513774,-0.010623859057506839,-0.026007777408735718,23535.92839805825
-0.01587278735753167,-0.02599136366418222,0.005540762537384251,0.1,0.08220529542298681,-0.008587686687583774,-0.025777257397557662,23683.4890776699
-0.015453336687215819,-0.025912162777477602,0.00508086686711701,0.1,0.08464032124562079,-0.011249372685909738,-0.026462254242496597,23831.04975728155
-0.01570359650580665,-0.026180336950690167,0.005478645984370144,0.1,0.08438090457206615,-0.009601675037744244,-0.026216185656518294,23978.6104368932
-0.015190233693204517,-0.02615885118864413,0.005490780762383396,0.1,0.08221828272386177,-0.00931887599999346,-0.026543489658149257,24126.171116504844
-0.015936574921945765,-0.02548653315707205,0.0048602553726492395,0.1,0.08132675078059383,-0.010081125557130973,-0.025693166688138577,24273.731796116495
-0.01493077269745318,-0.025824809093297926,0.005264578308519327,0.1,0.08348450749256867,-0.010997297583564061,-0.02635392290457073,24421.292475728154
-0.01549939046291516,-0.02631207082242871,0.005530439595702272,0.1,0.08339942328024429,-0.009363196165490226,-0.026633889193110234,24568.8531553398
-0.01557003816432697,-0.025371337143734973,0.005620449061703091,0.1,0.08423127636451504,-0.009606063886784713,-0.02594185664772506,24716.41383495145
-0.014865219758931864,-0.025998148698215484,0.0046806245499272535,0.1,0.0842831970632696,-0.013011439624569148,-0.026722942977596528,24863.974514563102
-0.014902594727217562,-0.02525596549323374,0.005136995980496912,0.1,0.08367485986262847,-0.012653849769493047,-0.02650260593976971,25011.535194174754
-0.015640254915094614,-0.025407861613843074,0.005775784252840179,0.1,0.08441226812579307,-0.010915983250186593,-0.025534126251313235,25159.095873786406
-0.014745717426059386,-0.025368382162854343,0.005669235973502544,0.1,0.08297219406602395,-0.011482530777841527,-0.02598757903562918,25306.656553398054
-0.015361768698619027,-0.025094050759917115,0.005052320106110475,0.1,0.08260552532308613,-0.01264024759884015,-0.026165657272964098,25454.217233009706
-0.014495335525829251,-0.02579066738425604,0.005164629163364173,0.1,0.08395020498779043,-0.008720761666756416,-0.026360819778006164,25601.777912621357
-0.014413941087314119,-0.025404291921199407,0.005043954462148268,0.1,0.08421448841619181,-0.010221861977534708,-0.02621216606116129,25749.33859223301
-0.014489495649818655,-0.02511013503178196,0.0049894465828216284,0.1,0.08415623491912076,-0.012670803958829233,-0.026775757918507618,25896.899271844657
-0.015028155797485088,-0.02565475684503139,0.006042909965613382,0.1,0.08425409275346905,-0.012320379927525724,-0.02589047788526217,26044.45995145631
-0.014841147111549324,-0.02582768023036571,0.005234440229578289,0.1,0.08237943935392286,-0.01209473202709559,-0.025983872732485477,26192.020631067957
-0.014977453688297336,-0.024862619504322062,0.005906745289072033,0.1,0.08060672332590574,-0.010788653161494202,-0.02579680485279688,26339.581310679605
-0.013724421825486978,-0.025016032645031595,0.005195068095265067,0.1,0.0812900830909455,-0.011628608874686027,-0.026067859954729048,26487.141990291257
-0.01410336958464096,-0.025573847326209622,0.006044667686494519,0.1,0.08100801824448049,-0.008597670034268326,-0.02603728263630008,26634.70266990291
-0.014010115480355509,-0.024875017011248005,0.0056152786414129605,0.1,0.08266776791141149,-0.008321788691370215,-0.02613883528248943,26782.263349514553
-0.01373464367689341,-0.025848433563290096,0.006295535080316662,0.1,0.08223796170056513,-0.009565447450731943,-0.026287135260478347,26929.824029126212
-0.014398567627874862,-0.02564838629205958,0.00561282483057589,0.1,0.08355105958102713,-0.00922081309578652,-0.02627321648930451,27077.384708737864
-0.014013798276085012,-0.025231879057132176,0.00613915525574313,0.1,0.08247998537766417,-0.009020200771156645,-0.025892879823301337,27224.945388349515
-0.014419905555156803,-0.024715484897395897,0.006670043026172179,0.1,0.08135073610719115,-0.010058461352213258,-0.02679921488781184,27372.506067961156
-0.01340110007217567,-0.02579965319234799,0.0060983673780211495,0.1,0.08192588794468805,-0.01223027525625493,-0.025784354382707958,27520.066747572808
-0.014145277172412466,-0.025986538531496538,0.005776980178759456,0.1,0.08064018727452432,-0.011957605479777512,-0.02590850537517532,27667.62742718446
-0.013833729355653919,-0.02469444043051788,0.006048072497884661,0.1,0.08194956787642527,-0.01138258405440568,-0.026376853256564036,27815.188106796115
-0.013754247323344368,-0.02559315697865414,0.0058761273705307026,0.1,0.07971171386795387,-0.008447014405117408,-0.0263063657822674,27962.748786407763
-0.014082091492818145,-0.025365724779197137,0.005767188124198137,0.1,0.08238631509520225,-0.00838186352106858,-0.025605590287113122,28110.309466019415
-0.013570984454915502,-0.02506119752404447,0.006314611382506215,0.1,0.08290625210135245,-0.00838852766077292,-0.026804040851136093,28257.870145631066
-0.013804684879396121,-0.025407466897531487,0.006242197890478232,0.1,0.08010093097701755,-0.012282189589897075,-0.025960063501719612,28405.430825242718
-0.013684388329436787,-0.024640801137789086,0.006301927981953873,0.1,0.0793526664120064,-0.01034027562762653,-0.026845733106160122,28552.991504854366
-0.012852692280276566,-0.02552357971538519,0.006402268040637657,0.1,0.08049594100710031,-0.010127778098914433,-0.026564429686278767,28700.552184466018
-0.012761917741290305,-0.025420500731848567,0.0062809346341265605,0.1,0.08010555187207889,-0.01060654651875735,-0.026752144001607286,28848.11286407766
-0.013590736792050487,-0.024473931546535304,0.0068302548177005045,0.1,0.08266090024072782,-0.012388834311931874,-0.026320116718775183,28995.673543689318
-0.012699033396088646,-0.024497540634747298,0.0063457498453609535,0.1,0.08132217006463867,-0.008546891140240624,-0.025510608691293863,29143.234223300973
-0.012479106201988823,-0.025474278310565916,0.007035014961172833,0.1,0.07932305188230838,-0.008336803273135122,-0.02563953754563652,29290.794902912625
-0.012656967792666106,-0.02502149109002427,0.006012121183062474,0.1,0.0805290993941428,-0.007811025034243763,-0.026089108047329782,29438.355582524277
-0.01272309129703914,-0.024544024017377777,0.007259766421041235,0.1,0.08031511305045475,-0.009784469303056795,-0.025565705922656112,29585.91626213593
-0.013096149409840946,-0.024808797836832916,0.00669520812670777,0.1,0.07951075768849243,-0.010982585202319883,-0.026142675733408987,29733.476941747576
-0.012518002587131845,-0.025035629149418027,0.007177851100742082,0.1,0.07931806714507209,-0.010017795127977848,-0.02599038559972174,29881.03762135922
-0.012158486402477896,-0.024542334991733583,0.006583419676024535,0.1,0.07873131406162329,-0.009942893530585913,-0.026222264569323542,30028.598300970873
-0.012624520491253559,-0.02469348646958428,0.00712239670551114,0.1,0.08147006756173945,-0.010896736676250915,-0.02623573795064126,30176.158980582517
-0.0123589309510473,-0.025175299351064148,0.00751156670432486,0.1,0.0802807803934362,-0.00828310221573695,-0.026731363988412107,30323.71966019417
-0.01276575129941442,-0.024569937587130677,0.00622005335804997,0.1,0.07848871587739592,-0.00924107365560168,-0.026405456341104746,30471.280339805824
-0.012199141621560017,-0.024911057878939224,0.007513196840805638,0.1,0.08164248899243277,-0.010433831834128934,-0.025689132269169676,30618.841019417472
-0.012388050643654898,-0.02445315161705765,0.006712998613669132,0.1,0.07952811673776018,-0.011970853712242152,-0.026295591257570028,30766.401699029124
-0.012039574900175279,-0.024514293559490363,0.007050162628770901,0.1,0.08038721012708304,-0.009256298422301022,-0.025574044937631272,30913.962378640776
-0.011891681754883986,-0.02528200886922233,0.0065298560320075005,0.1,0.07760601062150145,-0.010857952946570475,-0.026006860090865672,31061.523058252427
-0.011673398894463177,-0.024633463766107557,0.006814213223528923,0.1,0.07756521171995638,-0.010978805814974766,-0.02662548954116191,31209.08373786407
-0.011436744252628608,-0.024928543515562854,0.006411137819677452,0.1,0.07824828411011003,-0.010193235095047389,-0.02562530396934089,31356.644417475723
-0.012315672808159216,-0.024187225079862835,0.007403349974838387,0.1,0.07962222830761718,-0.01086209957031071,-0.026737858952693882,31504.20509708738
-0.011065218909071545,-0.024182421033508882,0.007057329072636518,0.1,0.08092661222980478,-0.01081952539359764,-0.02669598460559455,31651.765776699027
-0.011033814969856292,-0.02506958711340659,0.007031801951182974,0.1,0.07813575871798244,-0.01218062822316656,-0.02680342944657738,31799.326456310675
-0.01205660408904455,-0.025076196839926814,0.006923482012077775,0.1,0.07829493073425181,-0.009232907742640406,-0.026407773245145594,31946.887135922327
-0.011006000976768992,-0.024346402938263925,0.007282226877449115,0.1,0.07863496624981955,-0.008719801440853698,-0.0257220629527853,32094.44781553398
-0.011485320701513351,-0.02421261974998144,0.006811836670264203,0.1,0.08040540294596535,-0.012069569877761196,-0.026080097688308945,32242.008495145627
-0.010744403604794811,-0.02487762212842819,0.007535667946583922,0.1,0.07695898678351394,-0.008816962488192371,-0.026448660007978356,32389.56917475728
-0.011391858071604047,-0.024414299563556396,0.006937108007374411,0.1,0.07701495123322456,-0.008586386947091651,-0.026070069984560584,32537.12985436893
-0.011342602007319957,-0.02410606614685482,0.007858736941476915,0.1,0.07681939911692424,-0.00770044254994117,-0.02658607487106981,32684.690533980578
-0.011312353624720096,-0.02438103851887031,0.007137757103861033,0.1,0.07966709293116388,-0.011969543467913192,-0.02581448054525366,32832.25121359223
-0.010658517629451154,-0.024577364692441768,0.006731084496006171,0.1,0.07900060691882894,-0.007180797107831292,-0.02557807658782792,32979.811893203885
-0.011419064917873357,-0.023911314737320374,0.0076616579461236175,0.1,0.07924800390226591,-0.0072977889513546595,-0.026411295402472317,33127.37257281554
-0.010798491956459221,-0.02410545045835291,0.007244767893872208,0.1,0.07962997245537462,-0.011216847575221386,-0.026839157677184422,33274.93325242718
-0.01011146614348582,-0.024754026390297328,0.007731366025268013,0.1,0.07650820053119167,-0.009549550514325366,-0.026780241054338547,33422.49393203883
-0.011187064170714054,-0.02430902782733249,0.007957782803818515,0.1,0.07559929788015347,-0.00991843109039951,-0.02614896622093673,33570.054611650485
-0.011007777384030682,-0.02459901939658883,0.007023920322911926,0.1,0.07627942261510635,-0.008258395119895385,-0.02607435134152746,33717.615291262126
-0.009783769421961847,-0.024527773403999996,0.007682606203831847,0.1,0.07902616405276428,-0.0105353513080294,-0.025630559904759348,33865.17597087378
-0.010716596565061003,-0.024340771708734183,0.006948159567546677,0.1,0.0780006369899133,-0.00902980216639721,-0.025804775089013774,34012.736650485436
-0.010098493612447705,-0.024513171735483168,0.008102911035059836,0.1,0.07572588041999387,-0.00865576429840261,-0.026132788586548873,34160.297330097084
-0.00998376325000284,-0.023375859137934708,0.007730312559177868,0.1,0.07671040050214793,-0.00814284631646567,-0.025571494165440807,34307.85800970873
-0.010027397096119354,-0.02447974555150127,0.007795644220648679,0.1,0.07585946598677676,-0.008244171992599466,-0.02652961852929708,34455.41868932039
-0.01052182649083594,-0.02356657826159045,0.00701989373335428,0.1,0.07737822854567668,-0.010088287368023746,-0.026555114506247132,34602.979368932036
-0.010563586627728,-0.023767247781262286,0.007753259430052428,0.1,0.0755534038024307,-0.010934084311631112,-0.025795117098996713,34750.54004854369
-0.010185344851688788,-0.02369753553474535,0.008209814632718051,0.1,0.0755865530904294,-0.008807783506741919,-0.026546229603979652,34898.10072815534
-0.01014362194836819,-0.023628413096325036,0.007023224363396639,0.1,0.07764917918074107,-0.008841349482196297,-0.026120067049997798,35045.66140776699
-0.009779741874888295,-0.023812315064725337,0.007742213390389731,0.1,0.07672627497361953,-0.007692402933169687,-0.02655237985159146,35193.22208737864
-0.009441143500092529,-0.024108263759621308,0.007825933466252879,0.1,0.07672056786943278,-0.00791055194527795,-0.0257966682946065,35340.7827669903
-0.009852044810550898,-0.023077579664403172,0.008285397644670645,0.1,0.07556239242475311,-0.0073090279587090775,-0.025945310933683085,35488.34344660194
-0.00948859951811225,-0.023459524567614444,0.007177712024584839,0.1,0.07648665827918293,-0.01075698485938928,-0.025598414330198258,35635.90412621359
-0.009404410069563867,-0.023140959112172444,0.007447858351711601,0.1,0.07488957211564237,-0.011381164837251389,-0.025970844962398643,35783.46480582524
-0.00877785997919235,-0.02358161607266114,0.0073551643649654,0.1,0.07399824318045548,-0.0073439751405706705,-0.026010544017869473,35931.02548543689
-0.009464641963144874,-0.023837948115233456,0.007997877541375951,0.1,0.07337460125733712,-0.007228519855152132,-0.02650902925903336,36078.58616504854
-0.009483967116128828,-0.02372611332474141,0.00826229758496304,0.1,0.07619183164724029,-0.008383360077893478,-0.026204341886863314,36226.14684466019
-0.009432969528428616,-0.02392090010103011,0.00815397575553195,0.1,0.07645981947479569,-0.007061449933784685,-0.02665739871888391,36373.70752427184
-0.009262451862886982,-0.02324466183579397,0.008056574300377617,0.1,0.07362327677334476,-0.007843394126142674,-0.026458890981836763,36521.26820388349
-0.00844222587988598,-0.02281756483074696,0.008315453478971687,0.1,0.0736743314831678,-0.01058147413911353,-0.02593736683930599,36668.828883495145
-0.008430852080151001,-0.023527286877049542,0.00788610276633576,0.1,0.07343546232475702,-0.010331289907096959,-0.02646004871358598,36816.38956310679
-0.008925719260464449,-0.023586457746378384,0.007284751719136006,0.1,0.07483220519421721,-0.00693046876118927,-0.026790185339594486,36963.95024271844
-0.009334914701843073,-0.022522503078478834,0.0073285328448419226,0.1,0.07571143500863682,-0.00832089540698907,-0.025904389061939082,37111.5109223301
-0.008747673209451478,-0.022584498701669602,0.007894398371258035,0.1,0.07403706163407622,-0.011473506392071738,-0.025719267527591985,37259.071601941745
-0.008665660140663252,-0.023513253284705445,0.008383620224486911,0.1,0.07313517557128617,-0.010791634996620374,-0.026687113577370875,37406.6322815534
-0.008846319405899306,-0.02334703214361587,0.00842405737584825,0.1,0.0752377650645108,-0.008018745755427735,-0.02565854755280973,37554.19296116504
-0.009033751533436205,-0.022611839042562597,0.007400382087414074,0.1,0.07505611748734349,-0.008187723946519053,-0.02675507004144545,37701.7536407767
-0.008875931342925929,-0.022379448413223296,0.008268623689808676,0.1,0.07398897647871823,-0.009137241006658888,-0.026562780505063846,37849.31432038835
-0.008393527394853788,-0.022693990379161158,0.008393698845986007,0.1,0.0736722535211963,-0.00813045727141949,-0.026812965103578775,37996.87500000001
-0.008967514792779852,-0.022574894207820013,0.008034282043723827,0.1,0.07330103963576248,-0.009782239799026357,-0.025933879326281172,38144.43567961165
-0.008226605913950644,-0.022848712736110527,0.008088188895323416,0.1,0.0733927840707798,-0.006573470379413438,-0.025989906205911153,38291.996359223296
-0.008014871938891686,-0.022934933140160433,0.007839069343820441,0.1,0.07458127705383236,-0.008010131990231392,-0.026808775609086923,38439.557038834944
-0.007973701056266396,-0.022204461686573695,0.007424246897629908,0.1,0.07416286620875873,-0.009648896285786166,-0.026389974208851707,38587.11771844659
-0.008022234371120927,-0.022087544062799294,0.007330322110016773,0.1,0.0731479431186488,-0.007540794491675124,-0.026171368131926595,38734.67839805825
-0.008486395673034866,-0.02249088256392304,0.008167472289675026,0.1,0.07393687396470426,-0.007765657486157717,-0.025667642380646612,38882.239077669896
-0.008529756287897044,-0.022340834203243978,0.0073960330582165555,0.1,0.07070460985064478,-0.008587229509982197,-0.025773528048420785,39029.79975728155
-0.007877726359833751,-0.02190795907983626,0.008314265729921689,0.1,0.07204350616317676,-0.00982282863968857,-0.02679571293009201,39177.3604368932
-0.007399195302470296,-0.022051443251976444,0.007900694470656156,0.1,0.07105977795579087,-0.008405052991356389,-0.025873748893469984,39324.921116504855
-0.007357289531394524,-0.022392985019872375,0.007511230041464974,0.1,0.07077628983302496,-0.010417133310989667,-0.026474027082689047,39472.4817961165
-0.008177359868398466,-0.022818402859730993,0.008201016510621705,0.1,0.07216146160047776,-0.008844318175732968,-0.02587227320938637,39620.04247572815
-0.007716179314307701,-0.021993064367165475,0.007670143524623949,0.1,0.07318306542403101,-0.006882501338817293,-0.026425954881747357,39767.603155339806
-0.008087205807202303,-0.022815710682754134,0.008594575663497564,0.1,0.07344095042736937,-0.009165067281243508,-0.025975107914237988,39915.163834951454
-0.008022611189865454,-0.022569374305997023,0.00843219994506497,0.1,0.072517641361176,-0.010745852038671375,-0.026467242399263225,40062.7245145631
-0.006979341134289679,-0.02276286120314904,0.00839810228932715,0.1,0.07061618457158846,-0.010803504054387788,-0.026537854059337104,40210.28519417476
-0.0067761396868105265,-0.022708008801844058,0.007417587835908851,0.1,0.07280017196900987,-0.009475181230136132,-0.026695347374476736,40357.845873786406
-0.0076394759442546915,-0.021695435059435074,0.007675927135263202,0.1,0.07115378614963301,-0.007808681469591286,-0.026818861771629395,40505.40655339806
-0.00748866058701587,-0.02242887309411923,0.007861238215642436,0.1,0.07079759479244391,-0.007895325569176985,-0.026614155179705286,40652.96723300971
-0.007596807542307687,-0.022636285377600977,0.008518139254193483,0.1,0.06934925624635367,-0.008999412467914737,-0.026289940083342535,40800.52791262136
-0.007624418153227713,-0.022291533166337002,0.007336419809117645,0.1,0.0683316952019881,-0.008159649932915704,-0.02649864111291164,40948.088592233005
-0.007573723160499547,-0.022068883406430574,0.00864610724286846,0.1,0.07148537226893253,-0.006438054343218253,-0.025999240103312744,41095.64927184465
-0.006705162013482584,-0.022487488541755543,0.007643219945066141,0.1,0.06870336767435802,-0.010138569786875627,-0.02581141029252664,41243.2099514563
-0.006471787086387524,-0.021658418929333987,0.007625234399146521,0.1,0.06904381647058166,-0.009080226014195577,-0.02645812928990803,41390.77063106796
-0.006599164078542048,-0.02185364380179158,0.00800048397317182,0.1,0.07091911431249087,-0.010396922454300938,-0.02555329885744199,41538.331310679605
-0.00696667729505348,-0.022330936817048598,0.008553406415003113,0.1,0.0705653820750388,-0.009423919146982377,-0.026085668420814247,41685.89199029126
-0.006157485491665038,-0.02217692587041893,0.008000915419309989,0.1,0.06733428444704043,-0.00865421480061889,-0.025837634783422006,41833.452669902916
-0.006519658147921751,-0.022150166105332516,0.007682973515147574,0.1,0.069371918798183,-0.008645025493465935,-0.026418264369117407,41981.013349514564
-0.007254519333455258,-0.0211372831450076,0.007309820915310779,0.1,0.07047588594466998,-0.007666637470087939,-0.02645385273259468,42128.57402912621
-0.006059455232555161,-0.021885358393279965,0.008365202631823807,0.1,0.06687385349937912,-0.010642680335121363,-0.025834302887863054,42276.13470873787
-0.0062383159554474845,-0.021078852979708292,0.008064024415048422,0.1,0.06905733883556332,-0.0074997912162883505,-0.025535333848174753,42423.6953883495
-0.006423175732912601,-0.021996654833909557,0.007844857349830314,0.1,0.07021098478256897,-0.008910215859100705,-0.02646419882628092,42571.256067961156
-0.005772522367020679,-0.021751869071712157,0.008573713291804366,0.1,0.06652497275650553,-0.007939645439278109,-0.026143744923209956,42718.816747572804
-0.0067340757820535495,-0.02166720337170447,0.008587658420512328,0.1,0.06987290445098011,-0.007678162830150223,-0.026257582845718396,42866.37742718445
-0.006322335445980531,-0.02129455253292237,0.007993337175541357,0.1,0.06824416225762005,-0.0060254337181768845,-0.026739554542744536,43013.93810679611
-0.0062579479749332876,-0.020782497161728315,0.008389071397388611,0.1,0.0684990130168944,-0.006851531250486173,-0.026285483229260276,43161.498786407756
-0.006754629704572335,-0.021858273848502276,0.008551532199902291,0.1,0.06693633853807301,-0.009072006053449476,-0.025576842101630023,43309.05946601941
-0.006265617688348004,-0.021341782772633173,0.007484421579237291,0.1,0.06908721749578482,-0.008847257999144887,-0.026815794049202375,43456.62014563107
-0.005559524059110873,-0.021476857090949653,0.008053236837688642,0.1,0.06663139141543159,-0.009211153340173762,-0.025773383392407687,43604.18082524271
-0.006111307674257496,-0.020667867091318005,0.008453064539444385,0.1,0.06667066356800011,-0.007149744587433549,-0.025867634075763053,43751.74150485436
-0.005738498386105766,-0.021120451857733362,0.008399795310528197,0.1,0.06554772846486169,-0.0064548991622120164,-0.026850607966340374,43899.30218446602
-0.0063930097607149084,-0.021283666866379357,0.007900706814900528,0.1,0.06469673722683163,-0.007104625821551063,-0.026278136465606134,44046.86286407767
-0.006114996991607698,-0.021080595114031625,0.008143196801094864,0.1,0.06792375192623219,-0.007837678759475442,-0.025724157819362967,44194.42354368932
-0.005237708210075746,-0.021000360186205515,0.008426324589745298,0.1,0.06558806750478106,-0.009633118315841405,-0.026814399808327782,44341.98422330097
-0.00601976758017732,-0.020490357862886013,0.0073251385157927715,0.1,0.06460597114533545,-0.006304516730384143,-0.02575523210895441,44489.544902912625
-0.005361885269970519,-0.021032355137350127,0.007439819084390013,0.1,0.06690711037753032,-0.006646642592537012,-0.025815789331279586,44637.105582524266
-0.00600176430065824,-0.02086717765469257,0.007196607206167386,0.1,0.06378435613823541,-0.009540349561864007,-0.026403063799967152,44784.66626213592
-0.006132106109986393,-0.02119710836600613,0.008397981588032684,0.1,0.06367363970728324,-0.005575212400504624,-0.026050039965925375,44932.22694174756
-0.0053950240367151665,-0.020846362374104466,0.008106996933064095,0.1,0.06682534964479965,-0.006021246918566665,-0.026426817500212484,45079.78762135922
-0.005694390192597608,-0.020681180612852193,0.008152068893552612,0.1,0.06360738305369107,-0.009386917399054529,-0.026409218922833252,45227.348300970865
-0.005625866355155844,-0.020235967790558862,0.00778201959373999,0.1,0.06481940644890229,-0.008458778764244685,-0.025801430350921892,45374.90898058252
-0.0050337092369618155,-0.02124897031019635,0.007778884330350263,0.1,0.06632732609035942,-0.009715300218220332,-0.025934326912773992,45522.469660194176
-0.00462280365690416,-0.020562153756736024,0.007923349686368385,0.1,0.06616783638646445,-0.010276745544000071,-0.025791775975056375,45670.030339805824
-0.005767905414245633,-0.02091783323486471,0.007444968916406009,0.1,0.06342304022087963,-0.009660511129354022,-0.02628246503673845,45817.59101941747
-0.00463470442440324,-0.020758972364080214,0.007730758004514892,0.1,0.06607880731671477,-0.006049135824709344,-0.026385086796040874,45965.15169902912
-0.004375271683186298,-0.019883892100012217,0.007959498961567434,0.1,0.06449334274177872,-0.008696281158785445,-0.0266138120852854,46112.71237864077
-0.0054708952051240435,-0.020650018162831154,0.00725372569075193,0.1,0.06554033943362389,-0.005848695827837399,-0.026795169782820503,46260.273058252424
-0.004443019485208502,-0.02066148908311561,0.00805993722544706,0.1,0.06274387121532805,-0.009214250726708516,-0.026341626835900363,46407.83373786408
-0.004783623789385946,-0.0198043375903746,0.00763874673255165,0.1,0.06475588681125823,-0.009432647089545118,-0.025980663994765802,46555.39441747573
-0.004243577959640253,-0.020044051011918737,0.00838567680045859,0.1,0.06496831506337794,-0.0068426606812903015,-0.026149722965831405,46702.955097087375
-0.004295822251867961,-0.02075492473755797,0.008114363571956105,0.1,0.0639305255718935,-0.009875058992182507,-0.026855910807321953,46850.515776699016
-0.005197871900105799,-0.02059573925800497,0.008047242167453764,0.1,0.06468282344693602,-0.005751478968290787,-0.026016445462513995,46998.07645631068
-0.004120929605325692,-0.019805201660775627,0.007907685243045753,0.1,0.0645519594849799,-0.01010628628484066,-0.025658308549992077,47145.63713592232
-0.004740904165575835,-0.019889915201824506,0.007739812282305819,0.1,0.0611229724056554,-0.00570958563824916,-0.026302984832137166,47293.19781553397
-0.004145984792912781,-0.02013380541745252,0.008298749226901003,0.1,0.06265755974239169,-0.009423651943272097,-0.026494436585324275,47440.75849514562
-0.004707013532769284,-0.01970590993825428,0.007924101103213763,0.1,0.06398254353096999,-0.009189641856091129,-0.025797686443554672,47588.319174757286
-0.004201832827062289,-0.02021437133445556,0.007698415084944365,0.1,0.06324304809244756,-0.008872108484166984,-0.026679375258436316,47735.879854368926
-0.004706996707839924,-0.019828825811925955,0.007233428061009275,0.1,0.06342407287799148,-0.00645329987037583,-0.025605356727620744,47883.44053398058
-0.004702213086528987,-0.01999378658709712,0.006948271521259645,0.1,0.06323529212994045,-0.005647322184433647,-0.02572241425966228,48031.00121359223
-0.003702214515032516,-0.01987757125952258,0.007148365176668,0.1,0.05947723938016681,-0.009365091532628881,-0.0255870269936527,48178.561893203885
-0.003719193783021899,-0.019584538630744917,0.0074542851864340155,0.1,0.05957239368813276,-0.0073725255146022475,-0.026614108884433284,48326.12257281553
-0.004722057258503409,-0.020304780438297542,0.006870290374808534,0.1,0.06015722144757172,-0.008829522403993612,-0.02669475764257407,48473.68325242718
-0.00475509075247537,-0.01917868763286457,0.007302230499072196,0.1,0.061481069284897785,-0.007450992085385469,-0.025983513833901805,48621.24393203882
-0.004659604944695505,-0.020035918356969846,0.007122884587728489,0.1,0.06150338227703001,-0.006961307213189097,-0.02658675927458303,48768.80461165048
-0.004068902103816221,-0.020216236307765836,0.00783239051402411,0.1,0.060478126411139525,-0.0076247086053248,-0.02684309131221901,48916.36529126213
-0.004599232612624978,-0.018988273769264007,0.007395148219129956,0.1,0.05855675660706251,-0.009145257342008576,-0.026400055509518662,49063.92597087378
-0.0045022558446254956,-0.019105446965400147,0.008081070571635762,0.1,0.06175134140286318,-0.008672514013851981,-0.026712364851263215,49211.486650485436
-0.0033547613718284052,-0.019908000727931106,0.007906744622592565,0.1,0.06166066581835679,-0.007143843554406862,-0.026763966688107644,49359.047330097084
-0.003213147046733695,-0.01894948042474298,0.007807848852818758,0.1,0.05818962746643869,-0.009682879910429019,-0.02638737929671454,49506.60800970873
-0.003926733290216929,-0.0189884795335063,0.007229022301493041,0.1,0.05971422499503625,-0.00951074695527088,-0.025498789766533574,49654.16868932038
-0.0034793786930558393,-0.01909627240789605,0.007361484341090751,0.1,0.06070630036828693,-0.006251880186062687,-0.026401428589796237,49801.72936893203
-0.00406290597180629,-0.018657977499597862,0.007612846056106158,0.1,0.058021733323482996,-0.004752101078387083,-0.025668944983533688,49949.290048543684
-0.003445806350687962,-0.018865172128257907,0.007677306968362056,0.1,0.05910033497454498,-0.008453169971647963,-0.026825046783087687,50096.85072815534
-0.0036909038869447747,-0.019538421550101055,0.0071097008755669775,0.1,0.057247233769563886,-0.005722604422168032,-0.02600364282806954,50244.41140776699
-0.0040584688199414515,-0.0185600339523342,0.006646382916684164,0.1,0.058839781139578926,-0.005139280069860908,-0.02609463968948066,50391.972087378635
-0.0034714633947890146,-0.01920457092990759,0.007865916415674816,0.1,0.05715211281059235,-0.008135080649012758,-0.026187044514301018,50539.53276699029
-0.0032740366948882218,-0.019202934842590166,0.007169250772105531,0.1,0.05644684730424169,-0.006789534695984723,-0.025536929385843978,50687.09344660194
-0.002835173368039184,-0.019384512626242936,0.0070520471681359805,0.1,0.058639177956536406,-0.009351287562608435,-0.026231168311445258,50834.654126213594
-0.0031749171640889826,-0.018566723184670352,0.007616447759371909,0.1,0.05679792833452266,-0.00698242498569487,-0.026725077277826418,50982.21480582524
-0.003767056666408967,-0.019417242898303103,0.006989436137603226,0.1,0.0591123181448371,-0.006139558607023267,-0.026156113697333,51129.77548543689
-0.003612517081320866,-0.01837878090693186,0.006982729553875803,0.1,0.056034773660995574,-0.005606152980513492,-0.0266155417889885,51277.336165048546
-0.0037107587614801166,-0.019306517789819493,0.007021672995990188,0.1,0.05729254804916321,-0.00928879030869808,-0.02647069660640931,51424.896844660194
-0.002866034447751127,-0.019434762701690467,0.007180586380654108,0.1,0.05474932569367523,-0.004901208064826822,-0.02582978574308367,51572.45752427183
-0.0030225438307126145,-0.018663340156119507,0.007563590036253266,0.1,0.0569623906888232,-0.005109342969446622,-0.025642699113747263,51720.018203883476
-0.0025226874084775634,-0.018499039480072043,0.00713896658734066,0.1,0.05679337390075846,-0.007619163533283597,-0.026502062623062875,51867.578883495145
-0.0029402589991666503,-0.018583811798203752,0.006612020992022897,0.1,0.056663624507278146,-0.005019209184686281,-0.025964808711027004,52015.139563106786
-0.0032086559301338505,-0.019384975435170138,0.007151964408633698,0.1,0.05732907988322515,-0.007918625365881636,-0.026786430644176865,52162.70024271845
-0.002439700710653004,-0.019055881352209342,0.007039382816803211,0.1,0.054845008397956044,-0.008386217914889239,-0.026007584748840726,52310.26092233009
-0.003580566887794714,-0.01798433836478505,0.006728553848896473,0.1,0.05703492232147659,-0.006558331510044384,-0.025721456105176635,52457.82160194174
-0.0032155073756351574,-0.01862492317101278,0.006380106687295058,0.1,0.055355919544508025,-0.005082512620677901,-0.02559724784979502,52605.38228155339
-0.003491633655313958,-0.018050786553020944,0.007602082913621163,0.1,0.05669239613363401,-0.007494716553911113,-0.026540409495682576,52752.94296116504
-0.00333712581899914,-0.018266641630299632,0.006910899668752921,0.1,0.05568039601872881,-0.0044574362849537945,-0.026736676687930356,52900.5036407767
-0.0024519579299391516,-0.018318979000518754,0.006359417892650564,0.1,0.05399523526765925,-0.008266041963096866,-0.026849906845933535,53048.064320388345
-0.002590583571196369,-0.017823745884567484,0.006496203506034991,0.1,0.052894569470446774,-0.004672382324434746,-0.02582074589151325,53195.62499999999
-0.0022628775056158495,-0.01873577988413583,0.006443147481425567,0.1,0.05595292653193944,-0.004971864217255141,-0.02631029626129857,53343.18567961165
-0.00199088579795244,-0.017954571966604,0.006792891227615724,0.1,0.05417417556443617,-0.004501312633179979,-0.026350668265856934,53490.746359223296
-0.0019723126498269977,-0.01875268499684411,0.006755309168661976,0.1,0.05366479181997815,-0.007779256753441021,-0.026836944637575563,53638.307038834944
-0.0031187490246287137,-0.01828849532444508,0.006203505100351826,0.1,0.05139558916389099,-0.006524811995472419,-0.02659114993295039,53785.8677184466
-0.0019777831660658233,-0.018179192298507077,0.006130033040889447,0.1,0.05493924444720601,-0.006733576052236902,-0.026107174554192633,53933.42839805823
-0.002628761757512909,-0.018333270823890416,0.006378094690391285,0.1,0.05400780042778717,-0.0072708893568829945,-0.026388215822917862,54080.98907766989
-0.0024059547992472427,-0.018027583669250967,0.006441276596600075,0.1,0.05248126942427256,-0.006124325508476499,-0.025796262028536122,54228.549757281544
-0.0030374836688964826,-0.018470540475585114,0.007266632605759539,0.1,0.054377247632716785,-0.004779354991646276,-0.026192234254585396,54376.11043689319
-0.0023521352827969573,-0.018341519069524186,0.007257027638640914,0.1,0.05307963538928816,-0.008092088891207418,-0.025908152805862776,54523.67111650484
-0.002263008055179742,-0.01863644602972956,0.007239554056272406,0.1,0.05264159530095602,-0.007400755438760334,-0.0266068350765328,54671.2317961165
-0.0022864288466846196,-0.01839594331136045,0.005992856864865643,0.1,0.05302506833408899,-0.007127972603290053,-0.026385680846577348,54818.792475728165
-0.0025430842098807037,-0.018126532163703933,0.007056293996239345,0.1,0.051795805515624634,-0.006347680994408005,-0.02561103907096138,54966.353155339806
-0.0026607756109875928,-0.01814268789971783,0.006247826836678416,0.1,0.05271520768200023,-0.006519086039467908,-0.02614677738782903,55113.913834951454
-0.0019573672642189586,-0.01751331099989233,0.006586131478253988,0.1,0.050267987857202524,-0.0039583497135576295,-0.026861196886309488,55261.4745145631
-0.002515944668623928,-0.01800237163024889,0.007152703317982095,0.1,0.05099381102023568,-0.003949025456980857,-0.026376842396903792,55409.03519417476
-0.0022341417102385843,-0.018534190050929822,0.00702160238986398,0.1,0.05108488580152613,-0.004709186197520461,-0.026075402417789342,55556.595873786406
-0.0026415780128827577,-0.01737005479634122,0.00591403948676253,0.1,0.05153800367557184,-0.006829816822766413,-0.026721433103661766,55704.156553398054
-0.0025956877228639525,-0.017952048048973924,0.006627651726776754,0.1,0.050459436152257835,-0.007473056032206286,-0.026526633311661,55851.71723300971
-0.0018965569126341932,-0.018017547733057096,0.006690398224101248,0.1,0.049499854960586,-0.004382171150689814,-0.026702514778974576,55999.27791262136
-0.0015891976880444587,-0.018415144058482328,0.0057383803155495365,0.1,0.051347864212942004,-0.0045145805519758875,-0.026204742836356112,56146.838592233005
-0.0024175810739540298,-0.01740432061023402,0.006814688872457864,0.1,0.04925235808197289,-0.006524800573080434,-0.02635720053607167,56294.39927184466
-0.0014153403176228327,-0.017731408827691808,0.006905646915803386,0.1,0.049448150541843566,-0.004409843647009544,-0.02582660208446896,56441.95995145631
-0.0019969491407697618,-0.017122215108787784,0.005835214187746754,0.1,0.04753555078484948,-0.005283103417268633,-0.026428890789461132,56589.520631067964
-0.0022830181479904566,-0.017611603950074488,0.0067021239881359515,0.1,0.05028654035631848,-0.0038692800599505798,-0.026575111836017427,56737.08131067961
-0.0023406988699945365,-0.017446669186115225,0.0068406908866346485,0.1,0.04664899286093973,-0.004013248683247747,-0.02555517125282638,56884.641990291275
-0.0011891819397514098,-0.017244192577902735,0.005528840527973255,0.1,0.0464658266991633,-0.004158051054043294,-0.025925781099058378,57032.20266990291
-0.001378725172267185,-0.017701946415576857,0.006661678405657131,0.1,0.048373738095019055,-0.0037994002169046215,-0.02666394613586809,57179.76334951457
-0.0013949655198879755,-0.01747952291512906,0.005539583711664912,0.1,0.04864255975335006,-0.007173651706760467,-0.026849773389848768,57327.324029126205
-0.002216035474182029,-0.01785511200393055,0.005565705869843619,0.1,0.049610412209706974,-0.0080338834702958,-0.02685161204675345,57474.884708737845
-0.0016142283295864366,-0.01765045819129639,0.006285443464406831,0.1,0.047160203263861104,-0.007633851422557854,-0.025637321502030436,57622.4453883495
-0.0015934098556394558,-0.01685732445774822,0.005405408810276381,0.1,0.047171828841769556,-0.007662064120191282,-0.02630324180548217,57770.00606796115
-0.0019222559170733971,-0.01731253725002714,0.005840299639240519,0.1,0.04635729631084448,-0.0063302985317418925,-0.025518987088582683,57917.566747572804
-0.0010530345458901191,-0.01666495804064873,0.006552123409757058,0.1,0.048671266770538,-0.004300332588752763,-0.02602501668036188,58065.12742718446
-0.0020922795723366124,-0.017423256790709985,0.0065145934026271946,0.1,0.047987220569369535,-0.006711316450481285,-0.026245650763571073,58212.688106796115
-0.0020655817439634103,-0.01713726270858895,0.005670059752951474,0.1,0.04792619411719608,-0.004760592079586403,-0.026458644015896145,58360.24878640776
-0.0007928673142821295,-0.016756460069103474,0.00580170684416551,0.1,0.04500340112457388,-0.0067322376918399545,-0.02571388943286718,58507.809466019426
-0.0012062972827053388,-0.01699530727808659,0.005823959147053207,0.1,0.04438115415008229,-0.008124196632348857,-0.0256222255167575,58655.37014563107
-0.0011815592943870646,-0.01664698935563392,0.005502119120760958,0.1,0.045086732874604435,-0.008439760835511633,-0.02618819370959457,58802.93082524272
-0.0016106478395777502,-0.017503645561649833,0.006329187685879282,0.1,0.04388011372199966,-0.003979291426258226,-0.02570594995919507,58950.49150485436
-0.0018554541795838824,-0.017729647607167512,0.006031515906299511,0.1,0.04526878205800154,-0.005862417230631994,-0.026155585788217153,59098.052184466
-0.001050888268888061,-0.016596041275165698,0.006202891050250139,0.1,0.044139083398873236,-0.004821753395408594,-0.0257889247376369,59245.612864077666
-0.00138827461224928,-0.01652851985815503,0.005230241006175786,0.1,0.045498389480464384,-0.0037677828418131577,-0.02626045772567144,59393.17354368931
-0.0008786297660373669,-0.016514932050158294,0.0057051121850135895,0.1,0.044534302684297644,-0.0049304225086381935,-0.02581958458337166,59540.73422330097
-0.0008349980178961702,-0.017106466783814923,0.005970595037521719,0.1,0.04260289446776602,-0.004044537181346538,-0.0260863178271151,59688.29490291262
-0.0014814807918124883,-0.01736823274676411,0.006150771799155826,0.1,0.04249271035190347,-0.004928488233548909,-0.025736290761511533,59835.855582524266
-0.0005852594688349378,-0.016556009082139913,0.005461933173858902,0.1,0.04450033431315958,-0.006680868170052192,-0.026163737378848594,59983.416262135914
-0.0013348787571532076,-0.0175272048906122,0.006232560402642293,0.1,0.043735206003824946,-0.006472399157686671,-0.025849600445940424,60130.97694174757
-0.001144032182639127,-0.017376750816877215,0.0060330792567885455,0.1,0.04260276491638174,-0.006736353306417598,-0.02646128180268372,60278.537621359224
-0.0011024274709219093,-0.017366790318144476,0.005207945853750055,0.1,0.04470175784335491,-0.006307887176717757,-0.025772697276700597,60426.09830097087
-0.0005827723953966823,-0.017171129911465625,0.005237583236146029,0.1,0.0425421262716818,-0.004194875324104324,-0.02618162907592742,60573.65898058252
-0.0012692954190036492,-0.01618844969839596,0.005590536953474291,0.1,0.04323308152231628,-0.006544262559101956,-0.026181293440718074,60721.219660194176
-0.0012483097664967439,-0.016784042537861803,0.0053859321402793875,0.1,0.042408861271057315,-0.004389466594733288,-0.02660308779786311,60868.78033980583
-0.00034666800741442526,-0.016768086155053572,0.005884046695836118,0.1,0.04331525046637573,-0.006408734585340474,-0.02581833764775105,61016.34101941747
-0.0002009409492509202,-0.016880650820198812,0.0049241096695021545,0.1,0.0412556916063639,-0.005796269131399995,-0.025984824804426113,61163.90169902913
-0.00023219127370318303,-0.016807679420055968,0.004659479250828956,0.1,0.040374465187994035,-0.006584951807692633,-0.02677597677117854,61311.46237864077
-0.0006525786917260019,-0.016144254255529643,0.004912361865648263,0.1,0.040586601221021736,-0.006951692482375138,-0.026767988504132055,61459.02305825241
-0.0010449361942634068,-0.017067856500030332,0.005879133918428078,0.1,0.04027097732294792,-0.005981728038391384,-0.026493765140583093,61606.58373786407
-0.0005549358887452611,-0.016478396715022707,0.0050443706758317615,0.1,0.04148971118271252,-0.0031209364534710835,-0.026786394870303664,61754.14441747572
-0.0008077723877505216,-0.016226547695077392,0.005839529879118167,0.1,0.04181206579816714,-0.0042814654544209504,-0.026679060707969177,61901.705097087375
-0.0005445607072066348,-0.01712128129893562,0.0057608759881582865,0.1,0.03899300648104958,-0.0032004257024294443,-0.026812966343746535,62049.26577669902
-0.0011692370732278876,-0.016027832715799852,0.004990246937835584,0.1,0.03901034569880566,-0.004089951407476494,-0.026053102789943657,62196.82645631067
-0.00032292057355546525,-0.01706847416843985,0.004472367215101333,0.1,0.04140634236243761,-0.003164656228118566,-0.02602368716292514,62344.38713592233
-0.0010691545987411015,-0.01615965520213035,0.005559337293898033,0.1,0.03750429392555235,-0.00425477871467256,-0.026198519901016067,62491.947815533975
-0.0006910953953148783,-0.016729027222082776,0.005321543618321929,0.1,0.041182698885356535,-0.007078440079599246,-0.025913190072883407,62639.50849514562
-0.0001270654940425207,-0.016367660024039058,0.005559716221740005,0.1,0.03751623527382202,-0.004073182587837655,-0.02623424629333824,62787.06917475728
-0.0004945373469116175,-0.01583152229734015,0.005525062920203205,0.1,0.03691153525886963,-0.006432269077385134,-0.025801835330199762,62934.629854368926
-0.00020225092730413765,-0.016361988335872147,0.0049231739395448285,0.1,0.03925888180769828,-0.006670257959807033,-0.02578802660988583,63082.190533980574
-0.0006089836991102793,-0.015748951935312304,0.005172633198980756,0.1,0.03673171674593809,-0.004709738587191371,-0.02576576311288029,63229.75121359223
9.27766822973764e-5,-0.016694588085669582,0.004497090754900874,0.1,0.03847580902687659,-0.0029069429823505005,-0.026701169276506117,63377.31189320388
-7.831989065111214e-5,-0.016746880841053285,0.0053779600053293465,0.1,0.03612776434605866,-0.0064744685920236095,-0.026791693581599368,63524.872572815526
-0.00025370422017723543,-0.016414469865080012,0.005152958128805691,0.1,0.038939588668330874,-0.005109731771560322,-0.025895771532647587,63672.433252427174
0.0004108497700534362,-0.015537007958626205,0.004478825980621488,0.1,0.03820009478606856,-0.0034415348150059187,-0.025500685203834594,63819.99393203883
-0.00016315545462627936,-0.01614719268789541,0.00428476590792175,0.1,0.03898254163975829,-0.007266451171139906,-0.026021901025416894,63967.55461165047
-0.0007023308278962664,-0.015745982168438886,0.005396165974664922,0.1,0.038454790070579,-0.0037059068787454203,-0.026064500652176092,64115.115291262126
-0.0006475652185336141,-0.016058949548451478,0.004877863282807457,0.1,0.035336813132948966,-0.0075961749571223786,-0.026387810935733856,64262.67597087378
4.2421362095613184e-5,-0.01619167274441304,0.004670538242119692,0.1,0.03799987958440925,-0.0035390551369502395,-0.026566555771526425,64410.23665048544
-0.0006689175689788367,-0.01659308642443452,0.004217773361850389,0.1,0.03710110960391008,-0.0053809830032184106,-0.026104032179857073,64557.797330097084
0.00016984431150252565,-0.01670178243012987,0.003960657152157883,0.1,0.03445226726625216,-0.003937295607358542,-0.02584674780324152,64705.35800970873
0.0005420422528258993,-0.016704296091713824,0.004704814799472187,0.1,0.036809171482816115,-0.00733663314362149,-0.02682446924687267,64852.91868932039
0.00020873325466178331,-0.015737325486218857,0.0044629016839520235,0.1,0.03450749607264211,-0.006113568268870301,-0.025801818249132476,65000.479368932036
6.331323448346991e-5,-0.01564261335181724,0.004717250796054399,0.1,0.036540392537908084,-0.006629640760735667,-0.025935538180675184,65148.040048543684
0.0002849132807483535,-0.015451515715873373,0.004211914711917426,0.1,0.03304928747574676,-0.005910377562803592,-0.026243536203834312,65295.60072815534
0.00023604459774370493,-0.015329733792784687,0.004506613628499576,0.1,0.03312699266860952,-0.004784828252936177,-0.026549315864978076,65443.16140776697
-0.00012294120437003858,-0.016118659468225865,0.004102626533738462,0.1,0.035219463160069256,-0.002552772380930295,-0.02583438262281081,65590.72208737863
0.00023622497888205852,-0.01643020849957405,0.004507013541745752,0.1,0.03452446228455821,-0.005486044783581565,-0.026054964427071507,65738.28276699029
-0.000351636354640981,-0.016148821137828465,0.004120485581428188,0.1,0.03229421579201257,-0.005245933349305343,-0.02584847312603664,65885.84344660194
-0.00027128391240558705,-0.016327833863230473,0.004675409827824881,0.1,0.03522915596621965,-0.004627067010139068,-0.02607350731314266,66033.40412621359
0.00024202937435342098,-0.015228616838744399,0.00384208708589783,0.1,0.03172092715838895,-0.003222028150472834,-0.026338625704790723,66180.96480582524
9.001683401996252e-6,-0.015956275638307912,0.004112808223791107,0.1,0.031811357382736244,-0.005129737759067793,-0.025780660332056008,66328.52548543688
-0.0004222478142911328,-0.015822538291198018,0.004372342565277552,0.1,0.032692141887336636,-0.0038407130089008674,-0.026567740591150753,66476.08616504855
0.0004482697849444929,-0.016122943745505165,0.0038917454754732014,0.1,0.03134169885031512,-0.005613822616548551,-0.02586921390238807,66623.6468446602
0.0008773562182074067,-0.015555806249825497,0.004130753194947706,0.1,0.032927703890394,-0.005051747391921547,-0.026175871065521574,66771.20752427184
0.00022048723804410275,-0.015823600317057384,0.00430506188587031,0.1,0.03364374069548092,-0.006122983006722086,-0.026758842724595753,66918.76820388349
0.0006853192134598471,-0.015808017615546267,0.0038560588272093365,0.1,0.031795881931867456,-0.006971044505059195,-0.026561232917682722,67066.32888349514
0.00031414919901587377,-0.0155036870353687,0.0038625712544229176,0.1,0.02959132696331299,-0.002426617256885057,-0.02607948889096665,67213.88956310679
0.0005231909661245827,-0.015580891695282394,0.003799205789604133,0.1,0.032403332471647256,-0.0021700435105636864,-0.025635659215492518,67361.45024271845
0.0004933188192255292,-0.01625008667059497,0.004334844789464309,0.1,0.030495667942572444,-0.0033156751817868774,-0.02672628810353926,67509.0109223301
-0.00011863667510228693,-0.015212121512088336,0.004346987204648335,0.1,0.030935463720913693,-0.002517314672173386,-0.026446172729355052,67656.57160194175
0.0003980392201598398,-0.01574296779411486,0.003266430434547928,0.1,0.03158442692046428,-0.005348795360661016,-0.026743348361474805,67804.1322815534
0.0009116088392835472,-0.015115463050010273,0.0038155537558720453,0.1,0.032067304908283814,-0.0037132177601795135,-0.026109407003689657,67951.69296116504
0.0010417653352208286,-0.015808730331224288,0.003619835811538072,0.1,0.02956431372174572,-0.004823669142928443,-0.026438539962733112,68099.2536407767
0.000688898473969492,-0.01605578660489703,0.0033906999714407,0.1,0.030674684359902622,-0.0025228302951110296,-0.02564240165578393,68246.81432038835
0.0012171483910869492,-0.015837356250351858,0.003970941917800796,0.1,0.028165271465553712,-0.002029674881967104,-0.026180266561572522,68394.37499999999
0.0011737597984974482,-0.015380036174419251,0.003134644828669654,0.1,0.030524972543534805,-0.005811000846497369,-0.026642714900032977,68541.93567961165
0.0009083766422410352,-0.015023074787567712,0.003824020657813735,0.1,0.030357058843088622,-0.002523961071881097,-0.025812439640536016,68689.49635922328
0.0006090767186327425,-0.015198195002209477,0.0037542207499794648,0.1,0.02722166656176009,-0.005947797067808903,-0.026643089341956208,68837.05703883493
0.0004553481898941315,-0.016056453345362195,0.0034751856852956037,0.1,0.029255993012730352,-0.004948226347883908,-0.026303810003570575,68984.61771844659
0.0009168457567350482,-0.015468774712269687,0.0038008181419622545,0.1,0.02927066085603791,-0.003809448516168889,-0.025740765207895016,69132.17839805824
0.0008463917667929876,-0.015195243387117197,0.003112182307760625,0.1,0.0296352071922899,-0.002346901296894322,-0.026373494696247213,69279.7390776699
0.0004659130396990311,-0.015198972775322943,0.003060494449089892,0.1,0.028442715622958456,-0.005200506332279142,-0.026216103256383936,69427.29975728155
0.0013353892124390847,-0.015861323787342847,0.0038822488451765664,0.1,0.025404672582068983,-0.006645069967523976,-0.02612057676338606,69574.86043689321
0.0010616823268938878,-0.01480408804132252,0.003191818604283486,0.1,0.0255169738246224,-0.001942434900516972,-0.026112515755075633,69722.42111650485
0.0004450730264724939,-0.0153030462990206,0.0035426358288556683,0.1,0.02812699169302431,-0.003240752433217398,-0.02632068105267112,69869.98179611651
0.0010553519313612238,-0.015514843261822073,0.0029845172269362154,0.1,0.02601403116337458,-0.005434666247263456,-0.02585865660868875,70017.54247572814
0.0013628041118474857,-0.015007901372751672,0.0038168006970818115,0.1,0.024969661876042548,-0.004438149687197283,-0.026641158505671805,70165.10315533979
0.0011705481016134277,-0.014772763361609034,0.0033449594042942107,0.1,0.02687559651717852,-0.004274553089143079,-0.026554612221441707,70312.66383495144
0.000957599543970339,-0.015595667747850305,0.003372095156320418,0.1,0.02489192901135452,-0.005110204379962563,-0.025685547400364505,70460.22451456309
0.0008300769994950939,-0.015334869562269995,0.003611910678113,0.1,0.027363954278652246,-0.0030226330847099823,-0.02621839815462804,70607.78519417475
0.00030261134483461143,-0.01546824314727581,0.003454223560836416,0.1,0.02414939651999945,-0.003688726600026788,-0.026763981280546054,70755.3458737864
0.00037106670758007144,-0.01498976997877299,0.003182268812777413,0.1,0.02569024133174293,-0.0031917487745615953,-0.026520409609454603,70902.90655339805
0.0011921818303973087,-0.014638607436276513,0.0025908286503394376,0.1,0.02399198802512625,-0.0017167819909678739,-0.02582254611195492,71050.46723300971
0.0010618058192302668,-0.014957683691256544,0.003250983732509688,0.1,0.024384498070071314,-0.001743106252687145,-0.026315501378268585,71198.02791262136
0.0010760863081048981,-0.0149925957158486,0.0034762127524254095,0.1,0.02410349781576778,-0.001811392865692099,-0.02630875084964652,71345.588592233
0.00048316583389177066,-0.014657622605395137,0.002521623544418527,0.1,0.023231790050148023,-0.004412842901470392,-0.026284901844359842,71493.14927184465
0.0011367171365414183,-0.014938341205888108,0.00378347894449049,0.1,0.023217032079462022,-0.002104518461716373,-0.026154072983486036,71640.7099514563
0.0012197072829298007,-0.0149204643017153,0.0033157738041606068,0.1,0.02265116709494921,-0.0020884327795938377,-0.02679964207373577,71788.27063106796
0.0010733907507642518,-0.015730114287995943,0.0035723692789442637,0.1,0.024147697737176285,-0.0034448109521308464,-0.025735026240343985,71935.83131067961
0.0014670009291349018,-0.014806846772350252,0.0036901818244180966,0.1,0.024644612484923008,-0.0021905580125088225,-0.026765129069826657,72083.39199029126
0.0011452338480112908,-0.015015952804087122,0.003325281883528939,0.1,0.021442532797694404,-0.005475253756097388,-0.026581871529308715,72230.95266990291
0.0015574305461339868,-0.01457125951763259,0.0025170211662684,0.1,0.020989775006335195,-0.005623869164088253,-0.025689650768301077,72378.51334951456
0.0006681168260445907,-0.015523041937550957,0.0031780439683471596,0.1,0.021568461047743504,-0.002047514278151725,-0.02628846275671599,72526.0740291262
0.0011673841603203749,-0.014389640155447124,0.0028576645107003217,0.1,0.022542508941301147,-0.0035281889103783424,-0.02615033524642994,72673.63470873787
0.0009500171536616373,-0.014996189363379405,0.0034408605858922436,0.1,0.02139959817228071,-0.0031296369002032022,-0.026856457425843236,72821.19538834952
0.000740583974593857,-0.0148750452302955,0.0031834182994128378,0.1,0.02102185051145189,-0.005316080974463387,-0.026556300684554425,72968.75606796116
0.001411955768002217,-0.015073253111184844,0.002336488933263161,0.1,0.021949680403561028,-0.004615185134915807,-0.025891294574563302,73116.31674757281
0.0014122825833768789,-0.014505260053096452,0.0032114890103912717,0.1,0.02075748334751845,-0.0031405989057784163,-0.025722777848919125,73263.87742718447
0.0016090385226617252,-0.015616249105810588,0.003023145948499933,0.1,0.01891266666005085,-0.003138288580788679,-0.026783955196768603,73411.43810679612
0.0019493153237220072,-0.015278196817239322,0.0024675897092822545,0.1,0.020856169335033693,-0.002216965373343393,-0.025947485544114524,73558.99878640776
0.0007394997985986014,-0.015437340922780663,0.002440564913728853,0.1,0.019742511295025265,-0.0015265816444624213,-0.026046986554158238,73706.5594660194
0.0018127447582512932,-0.014297701297379305,0.002223124597604616,0.1,0.02129292264281728,-0.0011696908675061517,-0.026062838395982005,73854.12014563105
0.0016845685016375384,-0.01499349552713327,0.0024686623271427117,0.1,0.0195707041291483,-0.0014729728136824486,-0.025673577574249335,74001.6808252427
0.000887293876444334,-0.015313721927677265,0.0023823045309559606,0.1,0.021333602637357795,-0.005243267922317289,-0.026335405956474232,74149.24150485435
0.0008842670970046844,-0.015208024738175294,0.002886637198753052,0.1,0.01978565918286565,-0.006025918165488205,-0.02664221472658538,74296.80218446601
0.001917013744924886,-0.015128271704266885,0.002825117921915579,0.1,0.01736443581439411,-0.002502026989453114,-0.02561746199941674,74444.36286407766
0.0009570362803265471,-0.015500413050088178,0.002702052623479863,0.1,0.017782213512395843,-0.003919976598855242,-0.02642705176892797,74591.9235436893
0.0018112409957664957,-0.015014196652186819,0.002998062818456217,0.1,0.019082101685223243,-0.004140040771239897,-0.026029533836133788,74739.48422330097
0.001295851053408744,-0.015472768267442679,0.0024164287730211805,0.1,0.0163384815352645,-0.0029274829187170325,-0.025986334128342104,74887.04490291262
0.0015285585416375637,-0.014305284756910154,0.0024462532979588137,0.1,0.016924426284537022,-0.0032250058851602233,-0.026715206870437738,75034.60558252427
0.0018603148387443219,-0.01515432878384488,0.002100671122592773,0.1,0.01677421098186352,-0.004678676971267854,-0.026041802484519663,75182.16626213591
0.0021784163003878464,-0.015016383060049123,0.0026843188030311964,0.1,0.01628243937463149,-0.005592992622450402,-0.026178366183354326,75329.72694174756
0.0013243973823584923,-0.014214096653269713,0.0029759685593011053,0.1,0.016146893077967,-0.0009829114375717726,-0.026031552010722624,75477.28762135922
0.0013156480558975364,-0.014555548437722884,0.002803414941727811,0.1,0.015025380737508195,-0.005457781804013401,-0.02616786511425054,75624.84830097087
0.001732390586546205,-0.014971935109803753,0.002048354939516047,0.1,0.01731792287026083,-0.004305823992493532,-0.026634118937696624,75772.4089805825
0.0022718246181251444,-0.015040399147228056,0.002729613053674045,0.1,0.015697465877096115,-0.0037869468234178407,-0.026361348578611356,75919.96966019415
0.0022483853830670337,-0.014979475101542522,0.0016286075240178933,0.1,0.014230330550715193,-0.0024439907450943465,-0.026028599695766375,76067.53033980582
0.0014341707774551279,-0.014110508295445308,0.0017309294364808098,0.1,0.01504861369795667,-0.00321865404416793,-0.025938256357775073,76215.09101941746
0.0020813117663883943,-0.014335192507880139,0.0017323570229491627,0.1,0.016849554201640343,-0.003827478822810946,-0.026682163865702744,76362.65169902913
0.0018113044291163866,-0.014893840793087714,0.0014781049919219236,0.1,0.01372432735264204,-0.005209195032189403,-0.025722391377749766,76510.21237864078
0.0018099071028103962,-0.014537515622762029,0.0017159141391519081,0.1,0.01627721572517666,-0.001416742259707111,-0.0267355390309946,76657.77305825244
0.0018922255768714952,-0.014407256129891176,0.0019138389422936493,0.1,0.013448429393811986,-0.0025324511931970077,-0.025616971890093633,76805.33373786409
0.0021880569235908378,-0.014555902128032644,0.0026206834279246805,0.1,0.012572821946814078,-0.0035276282211073517,-0.02646767502867019,76952.89441747573
0.002221128525620235,-0.014706847510673247,0.0014270727218187811,0.1,0.01404120046357633,-0.005502223147244479,-0.026652899060963377,77100.45509708738
0.0014969601768730313,-0.014828475648373904,0.002120811147522057,0.1,0.01592015286185154,-0.005004541330736524,-0.025858979601593446,77248.01577669903
0.0016958254425765533,-0.01423307900062231,0.0023965767676293825,0.1,0.013652969852791207,-0.00432933516391634,-0.025593631672824094,77395.57645631066
0.002579774919055808,-0.015032464347878345,0.0025417599947255226,0.1,0.011945619423877443,-0.0052651774628260165,-0.026557761961851643,77543.13713592231
0.00165651276088046,-0.014784497042883406,0.0015329619012551636,0.1,0.012192072471631104,-0.0005139841449600833,-0.026622626836853017,77690.69781553396
0.001544602871734688,-0.014465631072547044,0.002506657294462606,0.1,0.014715930410274124,-0.004276131618340031,-0.0257865906724299,77838.25849514562
0.0013291610031070742,-0.01424201003152802,0.0023618745823492174,0.1,0.012006594893718966,-0.005326834031721802,-0.026473210771633934,77985.81917475729
0.001992562930681934,-0.013978011363465062,0.0016940360925514733,0.1,0.010908462038647409,-0.0024296688851298885,-0.025901639620276074,78133.37985436892
0.002292272840848257,-0.014173872588047212,0.001177624442828317,0.1,0.011541882246006378,-0.0018102366325468222,-0.026480009253272138,78280.9405339806
0.0014175899747163204,-0.014706278729154976,0.0014834555247907554,0.1,0.010500215128595445,-0.0052774571616303325,-0.025849436805370437,78428.50121359223
0.002696145116935199,-0.014717142508098555,0.0015005157432965313,0.1,0.013361524717939546,-0.0034882008787187817,-0.025730260028832226,78576.06189320388
0.0024547599778835666,-0.014324046780465755,0.0018841672367471338,0.1,0.011993451415844484,-0.0021965735171630505,-0.026361260008862505,78723.62257281553
0.0019234910320922473,-0.014292586616977052,0.0013653338873721133,0.1,0.009362422119293024,-0.0032523447922710425,-0.026440067137500096,78871.18325242716
0.002453517920127839,-0.015017798548633568,0.0021208863367235048,0.1,0.011311827472589036,-0.001753701918082145,-0.025667232671284755,79018.74393203882
0.0026180363195549734,-0.014887680499211993,0.0016751766602994876,0.1,0.010603560352439987,-0.004774968004134697,-0.026298896073378628,79166.30461165047
0.0022021229388794108,-0.01493666790786152,0.0013629441820597534,0.1,0.011172416392902474,-0.002849264382675907,-0.026170435921242706,79313.86529126213
0.002058058380467443,-0.013980192956976095,0.0020917391833501745,0.1,0.010245170911007687,-0.0014306375685083032,-0.02625065024053214,79461.42597087377
0.0024264547807642564,-0.014949350323721439,0.0014819740600148965,0.1,0.009401282939054916,-0.002629753922599412,-0.025891705287128784,79608.98665048543
0.0015634172820514272,-0.014865168848377014,0.0014627632694535343,0.1,0.009728655827853457,-0.005102893237445279,-0.026454283609066473,79756.54733009709
0.0026777620601526764,-0.014573074550767786,0.0016208931476260771,0.1,0.008895107588333733,-0.000212594078742483,-0.026049152553724985,79904.10800970874
0.0019311975131812817,-0.013894209483707615,0.002075653529086213,0.1,0.010056013217007649,-0.0016317725812326326,-0.02658677232959897,80051.66868932037
0.0023116801341791543,-0.014706792754980247,0.0016418103658897647,0.1,0.008877984228957393,-0.0012024129882053979,-0.026423916854168776,80199.22936893204
0.0025901407153539465,-0.014202786760513732,0.0019413375250731894,0.1,0.009807198376239891,-0.0042385505185062984,-0.025860540151607492,80346.79004854368
0.0018295277311528523,-0.014029874039247553,0.0018326303728450973,0.1,0.010177840044040118,-0.0021376646592350147,-0.026563997610110614,80494.35072815533
0.001892517593908008,-0.014266331559652732,0.0013412475964474668,0.1,0.0072489636860097835,-0.002785354051343059,-0.025785303008903127,80641.91140776698
0.0017967129524408243,-0.01373921672121626,0.0011793689509960806,0.1,0.009464567118329333,-0.0015215696345788389,-0.02643083620085748,80789.47208737863
0.0028576537763480097,-0.014944480298286465,0.0008017798549058854,0.1,0.00714024371466797,-0.0023759224290548116,-0.026560406535741043,80937.03276699028
0.001887313168803517,-0.014037737505160285,0.0007394573992823947,0.1,0.005952327633613813,-0.0041871349439240955,-0.026137792895263898,81084.59344660194
0.0021907639393037703,-0.014708814770289671,0.0009591372340783588,0.1,0.005438463034210792,-0.0013384236849699523,-0.02606831880728624,81232.15412621359
0.002031382413144742,-0.014991057424731223,0.0006702686726153507,0.1,0.007609671963768707,-0.000839679452427383,-0.026665714804656387,81379.71480582525
0.002223190966735447,-0.01391021709172415,0.0005955837785804721,0.1,0.005642712429738002,-0.0035544928014787196,-0.026087775803229157,81527.27548543688
0.002797571695486059,-0.014967296850277412,0.0005377713142911671,0.1,0.006119420673364042,-0.0004042761482929767,-0.02685779003382827,81674.83616504855
0.0025300959643069806,-0.013757042060153456,0.0014572177020091546,0.1,0.0050365893665126355,-0.0015238186033173272,-0.025637345507203594,81822.3968446602
0.0020923791054513062,-0.013765915861690108,0.0005580328439887703,0.1,0.004971224697534442,-0.0037592422779135506,-0.025697818930422205,81969.95752427184
0.0021304540072947615,-0.014117939390938708,0.0004884209639400003,0.1,0.005080579046893817,-0.001140981391216298,-0.026394662719810363,82117.51820388348
0.0021334019928183315,-0.014227470399521353,0.00048221664628946394,0.1,0.003398966712590031,-0.0029162767729844184,-0.02554484472649532,82265.07888349512
0.0029759396836719137,-0.013705485036689403,0.000950824197869709,0.1,0.006810612512786266,-0.001454110404027199,-0.026268027836387414,82412.63956310679
0.0026933671135904395,-0.014898796447427134,0.0016335534264858222,0.1,0.005550102787703565,-0.0007824395429255953,-0.02667844607244671,82560.20024271845
0.0024753038707849245,-0.014018313741133938,0.0016684330124536843,0.1,0.0037710788940619336,-0.0009546287391420628,-0.026140999210894647,82707.7609223301
0.002186492193824796,-0.013820933359361033,0.0004553148856028343,0.1,0.004692216374670947,-0.003351402466713885,-0.02617543605441585,82855.32160194173
0.0021827412077053366,-0.013718860315204749,0.0012667188786903592,0.1,0.003031512516490315,-0.0027231213242669104,-0.025830077030375834,83002.8822815534
0.003278943178740874,-0.014505063760461583,0.0014757132478794358,0.1,0.005548541297121995,-0.0028962418521254188,-0.026605833524908154,83150.44296116506
0.0025108843152193278,-0.014174232618752882,0.0007611465747852997,0.1,0.003351342425167076,-0.002830016912792568,-0.02570688455690645,83298.00364077669
0.0026719752296725055,-0.014481628517239978,0.0015516252825642073,0.1,0.0022323782557870297,-0.0028357952960185472,-0.025808336288481396,83445.56432038832
0.003301321613270014,-0.014553924344485224,0.0014043525557928807,0.1,0.0038585764827404998,-0.003979934023033503,-0.0257084601259085,83593.12499999999
0.002537978211851371,-0.0136705529647423,0.00034485071028266423,0.1,0.003746667493163474,-0.001671511055037315,-0.026375402992885967,83740.68567961163
0.002606460486292125,-0.01439281093394523,0.0006400407799397847,0.1,0.00118765281685842,-0.001575981219816944,-0.026130785488791237,83888.2463592233
0.002952056711138531,-0.01373023480286052,0.000581718824371249,0.1,0.004237875364354148,-0.0038442045093605485,-0.025748187580942928,84035.80703883494
0.002927860233720612,-0.014332525409114146,0.0013939599780620833,0.1,0.0018118863810328467,-0.0023707894940927215,-0.02640833323583197,84183.36771844659
0.00242474046765859,-0.014844583831098277,0.0011164546707399066,0.1,0.0004012924287539346,0.0005347780897279786,-0.025985663699439,84330.92839805825
0.002653639825454787,-0.01462451571973483,0.0006658899076708167,0.1,0.001422067082223652,-0.003435492964070592,-0.025620439153551684,84478.4890776699
0.0029528405595237233,-0.014598351503710886,0.001155631525512422,0.1,0.0032114274712789753,-0.002341161162654263,-0.026692101114669495,84626.04975728154
0.0029347554271034765,-0.013562059640447228,0.0008872317644450246,0.1,-0.00036859814416693787,-0.0010086624297099408,-0.026203130802575438,84773.6104368932
0.0025799516566494987,-0.014685394732380343,0.0007243773712855023,0.1,0.0014377167523149186,0.0004230136686384019,-0.026430236692316155,84921.17111650485
0.002419969156795658,-0.014785812000535503,0.0011437180169762383,0.1,0.0019903432523595294,-0.00155606180214641,-0.02554874878531372,85068.73179611651
0.002303108523847438,-0.013669161300439008,0.0005158869904128385,0.1,-0.0009697950050328807,-0.0010862962787273021,-0.02628222564262537,85216.29247572814
0.003497336203645793,-0.01483173584987318,0.0011846666398244643,0.1,-0.0008374772031464317,-0.001740128418297019,-0.025610833865794873,85363.8531553398
0.002760824564463957,-0.014313849508871884,0.0010136851387793286,0.1,-0.0010969175386839913,-0.0030563416624314436,-0.025952695546675904,85511.41383495144
0.0023658843587958766,-0.01388903868873607,0.0008748695004700813,0.1,0.0011454359439597584,-0.0032812862172933114,-0.02637632268534182,85658.9745145631
0.002360713382321525,-0.014261152927303764,0.0011084401819722552,0.1,-0.0009499470375375586,-0.0029343703019353417,-0.026772472580294842,85806.53519417474
0.0027360764055680306,-0.01479568658969977,0.00033347699382703985,0.1,-0.0023497653522975004,0.0006574813472004747,-0.02557093999345628,85954.09587378641
0.0032198483722254223,-0.014656485954714372,-7.832975455019351e-5,0.1,0.00018284421923702777,0.00045306829118849307,-0.02665076031884303,86101.65655339805
0.0032624038216084615,-0.014034777177479547,-9.888733729153821e-6,0.1,-0.0009153404568078807,-0.0033798576410675706,-0.026283266647607845,86249.21723300971
0.0032131252258733364,-0.014616658202969007,0.0009022990626324863,0.1,-0.0012867438836436892,-0.0008368431998846933,-0.025544715576807667,86396.77791262136
0.0029143071898331636,-0.014668525058582432,0.0006603285090750994,0.1,-0.002768409380986464,-0.00047388060772659115,-0.02666130218694907,86544.338592233
0.002799356722040511,-0.014248554934967631,0.00041956937731608035,0.1,-0.004070518607527561,-0.003833599336615707,-0.026753524505390914,86691.89927184465
0.003346642919997364,-0.014170134090597352,0.0010591807767664247,0.1,-0.00038381755833001097,-0.0038295550916587376,-0.026420702280326943,86839.45995145632
0.0029510278285410593,-0.014432912752061438,0.0005161565402315003,0.1,-0.0026390614653836442,-0.0032264113177901755,-0.025858216987543963,86987.02063106795
0.0028847370303591506,-0.014211444374392148,0.0002286268543518364,0.1,-0.004393683317717016,-0.0014288931831855647,-0.025661657235556832,87134.58131067958
0.0025261264195913587,-0.014507779616659276,0.00015336260078620113,0.1,-0.0032857729204500293,-3.724614248425259e-5,-0.026109793554671135,87282.14199029126
0.0027645860601313056,-0.013933341751610468,0.00025748927270339607,0.1,-0.005349654505465228,-0.003870630004008255,-0.02668367090942269,87429.7026699029
0.0027127655092496145,-0.014493950120244185,0.0006503268670544115,0.1,-0.003996987478404875,0.0005900333635713451,-0.026567660759943594,87577.26334951456
0.0033162994443207985,-0.01451242106563255,0.000924602882821631,0.1,-0.002654690851032919,-0.0019092331829798255,-0.026605797017815992,87724.82402912622
0.0030087532925118033,-0.013748772944983141,1.2195965733693428e-5,0.1,-0.005816229286669966,-0.0009220299783923765,-0.026853776319674994,87872.38470873785
0.0037769723977555316,-0.014492037987378173,0.0002500651004361429,0.1,-0.005280171100752738,-0.0007563137845301873,-0.026027042151095175,88019.9453883495
0.0032271434272999762,-0.014036927217707038,0.0003306199599032733,0.1,-0.003172978161593626,-0.002637377810971663,-0.026319331794243436,88167.50606796116
0.00261414978437756,-0.014180517881404626,-0.0004781934833832327,0.1,-0.005915464648358724,-0.0015895111097663046,-0.026621542667144567,88315.0667475728
0.0038806925563265155,-0.013983934568605834,0.0007129654697983212,0.1,-0.005816194668997333,5.7544611472167256e-6,-0.02588100231297727,88462.62742718446
