ax,ay,az,dt,dpitch,dyaw,droll,pressure
0.0003023597732995398,0.00015963333023616516,0.00011283364833671321,0.1,-0.00162067677662859,-0.03828019454560513,0.04493622542759544,0.0
0.00029338853695017676,-8.923343273125879e-5,2.9373841406243616e-6,0.1,0.001755041698593504,-0.08163260021981522,0.04501407785200554,0.0
0.00019528509395608888,0.0003352545043348911,0.00017631403691666556,0.1,-0.0015306565658876486,-0.07883777966064703,0.04576901501995343,0.0
-0.00010070089081360271,0.00020907633746569313,-1.4858507985949196e-5,0.1,-9.758368724912958e-5,-0.0809794250424911,0.045346677267715546,0.0
-0.00012672237374456019,2.0656315256878627e-5,-0.00013686428056219763,0.1,0.0012178521816445813,-0.08056517732171643,0.045989878986926344,0.0
0.0001587834165388281,-0.0002391792537574958,-4.4071969614740534e-5,0.1,-0.0005746996656377542,-0.07829489050846551,0.04616662628929594,0.0
-0.00014763750513544166,-0.000111355435499381,-6.228275332779892e-5,0.1,1.5824392300382937e-5,-0.08102826180288598,0.04604275121206782,0.0
0.00014583715834295773,0.00014559366839622898,7.0911428791739365e-6,0.1,-0.001755693447722414,-0.0781505293710949,0.04491901325447848,0.0
-0.0003419225127297919,-0.00026707505417648613,-0.0002878583392516126,0.1,0.0018217697106306667,-0.0796408728509026,0.045249489110059424,0.0
8.031453909461013e-6,-0.00010422847232228661,-8.907685569128706e-5,0.1,2.5368064857339685e-5,-0.08022998628155179,0.04525056408989984,0.0
-0.00023845495573271148,-2.6135824961967943e-5,-5.7891245281711715e-5,0.1,-0.0007461018242891779,-0.07884043283155352,0.04569194547102684,0.0
-0.00019441034641145652,-0.0002897933389343064,-0.00015568791396975822,0.1,0.0020179556614111404,-0.07846832643715075,0.045247811979518875,0.0
-0.00014023446964452015,-7.562399694089234e-5,-5.53969841986342e-5,0.1,0.0004327338410956144,-0.07940803571928419,0.04562426137758762,0.0
-0.00011629656156137994,-9.2461369972996e-5,1.4928418798962217e-5,0.1,-0.001444679952906728,-0.08225834411807799,0.04604756413901164,0.0
0.00031390335716571284,0.00020107977664839485,-8.066014680712855e-5,0.1,-0.0006072047749081034,-0.08019524808224054,0.04554593817298129,0.0
0.00033351389848914866,0.0002997507025687662,-0.000242612119957018,0.1,-0.00037662694089092986,-0.07989759777642337,0.0461530551095267,0.0
-0.00011091614729488284,-2.029724195116582e-5,-0.00016552915262572738,0.1,0.0008176392046232526,-0.08171049579306115,0.04514572932480775,0.0
0.0003024961617429661,-0.00034487685510931044,-5.691664343311786e-5,0.1,-0.0003848393584532295,-0.08230120168758144,0.045983598201820096,0.0
-6.786295628954265e-5,-8.122184316547269e-6,0.00012465579624837864,0.1,-0.0005076933709807174,-0.07851683552134207,0.04570599370330543,0.0
0.00022985380421622538,0.00014696701191790768,9.903965639138925e-5,0.1,0.001779304050430988,-0.08043668232137395,0.04505330108303323,0.0
-8.588654889158618e-5,9.57044644000401e-5,-5.3321847049589324e-5,0.1,-0.0019380526715076156,-0.08014307548638606,0.04517999894154257,0.0
-0.0002893190617942368,-0.0001500017183823468,-0.00021957211476954133,0.1,0.0011912017237810575,-0.07972618971847878,0.044936482746209094,0.0
0.0003013904701756609,-5.906231730085399e-5,-0.0003267092402206611,0.1,0.0016144405021578335,-0.07882013523727087,0.04545168408315764,0.0
-0.00029031338572786544,-0.00013351740433680402,-0.00012073893135112118,0.1,-0.0011726895941045353,-0.08129009878028785,0.04538658747646311,0.0
6.458127555299847e-5,-8.473407398446397e-5,9.543069422351734e-5,0.1,-0.0018410657792514355,-0.08098438322977568,0.046142465152935866,0.0
0.00014341387295644737,-0.0003312942340059879,0.0003408262177797869,0.1,-0.0009347670596514568,-0.07873367617178882,0.04545978135930092,0.0
-8.908426083902355e-5,0.0001496277426964264,-5.7616449771421576e-5,0.1,-0.0014888398688851624,-0.08240773550696968,0.045090692184997,0.0
-0.00012525049908487332,0.0003013283183258642,-1.1790465150883908e-5,0.1,0.00011471350891535174,-0.07984324871129224,0.04518099550133661,0.0
0.00024193738120981,-0.000323792079846424,-0.00011726690345800737,0.1,-0.002015502505947049,-0.0783103287393811,0.04508132676012106,0.0
-0.00014066072115613852,0.00017476449323227024,0.0002106675720953833,0.1,0.0017702757391676429,-0.08075483029495223,0.04498050829278172,0.0
6.988181332248258e-5,0.00015730086905684076,0.00032065955835611546,0.1,8.842697355529368e-5,-0.0818943201357093,0.04563285006207222,0.0
4.412932236942523e-6,0.00011524405189843925,-0.0002990258375916574,0.1,0.0013040816161554271,-0.0784810415393596,0.046154701522655155,0.0
0.0002430913902399937,7.419684882356902e-5,8.637787289466572e-5,0.1,0.0013130068692366258,-0.08254156972898728,0.04615603055740242,0.0
0.00012069390786668075,-8.780266833824762e-5,0.00017942446020567096,0.1,-0.0020108489390985806,-0.07824990786844349,0.045481111470527226,0.0
0.00014280152613808762,0.0001468120492401171,-6.936880058211071e-5,0.1,-0.0004975259412407583,-0.0827756046982479,0.04544741136971061,0.0
-9.207661850700615e-5,-9.194989178391152e-5,-1.9890719338051088e-5,0.1,0.0015272562230180951,-0.08141920680692331,0.04493674361160702,0.0
-0.0002293978909152835,0.0001141999091902908,0.00014185131807957206,0.1,0.00034742405859515026,-0.08050547562153536,0.04591747332731757,0.0
0.00027698119164983856,0.0002582575549766473,-0.00013763753709739173,0.1,0.0002974629698459393,-0.07869491849625804,0.04516924511900888,0.0
-0.00026857872944618407,-0.00011939720204511291,-4.347307319034161e-5,0.1,-2.925142973852651e-5,-0.08038833714429736,0.0459224362551572,0.0
-0.0003055559808502635,6.069562697893833e-5,0.00020279977118042126,0.1,-0.00014247075854912925,-0.08220529570794083,0.044895232876093163,0.0
-3.3394399030440945e-5,-0.00026897549143691364,-0.00013043102764029375,0.1,0.0016488226129845638,-0.08099243555206566,0.04579566804593286,0.0
-0.00020169894494166758,9.615325591111938e-5,0.00031763398499714423,0.1,-0.0013784808490535133,-0.08253496691902021,0.04549723996728243,0.0
7.484689244866553e-5,0.00016794817065905385,0.00020387220291698762,0.1,-0.00014517093855676043,-0.08229746535132351,0.04563120380156722,0.0
-0.0001497315280050471,-0.0003028207471615389,-0.00016619455944717182,0.1,0.0017584235973071398,-0.07860709656738998,0.04533107283250558,0.0
-0.00022031444419155926,-0.0001916064920837505,-3.922213736317227e-5,0.1,0.0019879860093253696,-0.08304295883053554,0.04514176278965681,0.0
1.3291443247010151e-5,0.0003400734047720849,7.658277071238324e-5,0.1,0.00029072400508831374,-0.07976740518453115,0.045052808740668124,0.0
0.00032446005703337774,-0.0003229796965659672,-0.00031939485214454663,0.1,-0.0012723730173409798,-0.08235003847718748,0.04559950204257355,0.0
0.00016911523473370988,0.00030346862190511355,9.97381056180968e-5,0.1,-0.001985060893384169,-0.07889724717869602,0.04523505800910022,0.0
-0.00018775633640317352,-0.0002713768305737213,-0.0002793858808835225,0.1,2.702268837994532e-5,-0.07864818579080328,0.046195725326116106,0.0
-4.3360410237635215e-5,0.00028460098050674473,-0.00027500893434759255,0.1,0.0018418041016503362,-0.07828410819062138,0.04544476991934698,0.0
-0.0003181846528390129,1.935323443731663e-5,4.7702542713555e-5,0.1,0.0009933844607823838,-0.0819821168954111,0.044972136279538326,0.0
-2.0109284144417908e-5,-1.829721772232939e-5,0.0002481602778058967,0.1,-0.00024338411611712972,-0.08237603955231851,0.045321410773268136,0.0
-2.661848670269586e-5,0.00025191188737894204,4.625904974016677e-5,0.1,-0.0009196616614527464,-0.08209963578204808,0.045065305417885525,0.0
0.00027111416127045996,-0.0001793151547739947,1.7856756077213028e-6,0.1,0.0008290286017397905,-0.08163281830706025,0.0456103928840607,0.0
-0.0001962758439274164,0.0001433208918938913,9.862182690311918e-5,0.1,0.0014145191985843715,-0.07924679444190703,0.04510395340509242,0.0
-0.0001482574885536083,0.00010995988506596664,-4.636927266891081e-5,0.1,0.001062541046249122,-0.08081823902294688,0.04501079911226834,0.0
-0.00022158260895442915,4.906703245790853e-6,-0.00014827730226643117,0.1,-0.0005391590194944961,-0.08191868157648831,0.045085799813758,0.0
0.0002692219275235083,1.695423303145339e-5,-0.0002181630309078119,0.1,-0.0008101329326359184,-0.08150086454103168,0.04554139678878148,0.0
3.6687172747996615e-5,0.000269618240233322,-0.0003204675786574445,0.1,-0.0012376790746961507,-0.07811138230889633,0.0460854226042923,0.0
0.00022898959256158137,0.0002446633916358408,-0.00018679267187199694,0.1,0.000563941264655516,-0.08306155639201981,0.04506593136382099,0.0
0.00025062730342906596,-0.00034788949580279394,-0.00018474138127244923,0.1,-0.000723579389098962,-0.08033703345253554,0.04485571950532354,0.0
-0.0003169191202077022,-0.0002723954269128589,3.507578785152531e-5,0.1,0.0008198054660282836,-0.07821677423990472,0.04616764930911807,0.0
-0.00011835341880610648,-0.00019827977998373186,-1.1737478223857487e-6,0.1,-9.748495038698786e-5,-0.0826283270615569,0.046039952043591896,0.0
0.00033830957387533106,0.00010916194762867579,0.00022572251276489275,0.1,-8.435207868725058e-5,-0.08124319341676907,0.04582944234654514,0.0
-0.00015141967156560786,-0.0002491813967093787,0.00020589275560294659,0.1,-0.001863265374652011,-0.08005089545836147,0.04572405785349313,0.0
-0.0003257468735391921,0.00014880116618645124,-2.9407810534480416e-5,0.1,0.001196037280515506,-0.08071923532048725,0.04491737921877417,0.0
-8.292341255633673e-5,1.9548819322299743e-5,-0.00029844597104839745,0.1,0.0017901409738035237,-0.08037457769123119,0.0461226305693187,0.0
0.00025163827123296213,0.0002539245839276127,9.479000096809882e-5,0.1,0.0005918693147601525,-0.08204039163612625,0.04533617363774193,0.0
8.55573170750597e-5,-0.000327539383804831,-4.863391435538409e-6,0.1,-0.0014011747560665954,-0.08271637414429245,0.04571827043152739,0.0
-2.6937629058739428e-5,-0.00033101120338962354,0.0001512040154297271,0.1,0.001492983391591449,-0.08283438873881038,0.04573500083723718,0.0
-0.00010471169847052962,-0.00010289112654470461,-5.307045774160379e-5,0.1,-0.0010708669099737964,-0.07882818435802261,0.044953360284913535,0.0
0.00013790916827702477,-0.00027477417979867707,-3.495662146195505e-5,0.1,0.001999548730583854,-0.08032339827556122,0.04550265933742191,0.0
0.00031364740576687487,0.00011870701172203324,0.00023377096517999182,0.1,0.0014350559603067928,-0.0789989243175972,0.044851524849835435,0.0
8.735571053387546e-5,-6.0071343771586706e-5,0.00015447624870995567,0.1,0.0016032931140913418,-0.07979385852257301,0.04617827028823164,0.0
0.00012177638552913307,-0.0002697074958134875,-0.0003393727621453139,0.1,0.00032695713749146294,-0.07907122777492133,0.045610474564727985,0.0
-0.0002130631817379856,-0.00026540767658881113,-0.00018442667637607116,0.1,-0.001983292210157972,-0.08029014300678787,0.044892487315574506,0.0
-0.00017225840615174462,-0.00013626317800683046,8.019308870189587e-5,0.1,-0.0016041587181342774,-0.0805794918028099,0.04544768886143877,0.0
-6.476479062156712e-5,-6.745102224251198e-5,0.00027265100399832896,0.1,0.0011928727355036727,-0.07922992297828221,0.045336217780196225,0.0
-0.0002108997029206843,1.4502321827724946e-5,-0.00013252169426271668,0.1,0.0018130267793422035,-0.0811587156012794,0.046080809302793804,0.0
6.584359542359044e-5,0.00010811253850875447,-0.00028014870851339463,0.1,1.1391913515987337e-5,-0.08236653455345168,0.044938962618980206,0.0
0.000122026322563344,0.00011428062309996591,-0.00016515687310022752,0.1,0.001434291919252454,-0.08105552390270576,0.045477334706022575,0.0
-0.0002863890550778809,-0.0002572074077722655,0.00032284233816159687,0.1,-0.0009731910606185726,-0.08216184518855732,0.04530904412154501,0.0
0.00024431161464729225,0.0003014180260509656,-0.00011332498421498566,0.1,0.0013763915783878292,-0.08162324079862246,0.046020287149275745,0.0
0.0001530032681774056,6.915131680221616e-5,0.00033231837603522115,0.1,-0.001982612639874142,-0.0781532461160417,0.04515536704148986,0.0
0.0002621221003140306,0.00019849692582366103,-0.0002855262968802333,0.1,0.0018207034644026835,-0.07921138985274279,0.04571742367828976,0.0
-0.0003056435586955847,0.00017094744344379464,-0.0003155462847679388,0.1,0.0008595545107217656,-0.07902016241569189,0.045715888390983145,0.0
-0.0003066927321778707,0.00025148351410025856,0.0003466985289451031,0.1,-0.0009339000385744425,-0.07967829588092618,0.04588857826940109,0.0
6.557821910255858e-5,-7.931515267251918e-5,8.53356276703452e-5,0.1,-0.0009644607244868193,-0.08301689851596948,0.04611685018167321,0.0
0.000333942677162419,8.907925459774887e-5,-1.1816335635054524e-6,0.1,-0.00020733269929521842,-0.08303311283475924,0.04485197066155162,0.0
0.0002716919601716874,0.00021793591919226825,1.5886741200084294e-5,0.1,-0.0006043530268404688,-0.07903428036041091,0.04490568515341997,0.0
-0.0001795798762402205,0.00016779534155931015,-4.996551443451994e-5,0.1,-0.001880874705652794,-0.07836447707528059,0.04589518559741148,0.0
-0.00013626807941911377,0.00033851574313573937,-0.00030110098069681884,0.1,0.0016356185095306058,-0.08146663094657343,0.04514891105746474,0.0
4.555509861698988e-5,0.0001265346378162522,0.00015244158619447332,0.1,0.0012838450870509513,-0.08118572120903393,0.04568775712104422,0.0
-5.8498878668855e-5,0.0001232510665566465,-0.00015629844698041565,0.1,-0.0009648105513872442,-0.08254782442433503,0.04511689495310024,0.0
0.00031984787112411463,0.0003255038167284552,-0.0001132909742885618,0.1,-0.0011974375759613036,-0.0829505712078972,0.0460058901073636,0.0
-0.0001199881949661429,-2.4752248175750095e-5,-0.0003087754600841077,0.1,-0.0007844512490278475,-0.08256096800535238,0.04566028804599911,0.0
3.613352428915501e-5,0.0002909050276928208,0.0003069857159628198,0.1,-0.0012297444567924707,-0.08221464835773583,0.04604819580292863,0.0
-0.00012440158971444525,0.00018829714528940798,0.00026609081426529714,0.1,-0.001235484233020712,-0.08015024164051597,0.04572086223980009,0.0
1.1927376066455766e-6,-0.00015570791085755254,-0.0002869138063013502,0.1,-0.001570752036722678,-0.07984634789995118,0.045046931252486426,0.0
0.000308467033877742,-0.0002143679645030631,-5.024742340408888e-6,0.1,-0.000569007701359564,-0.0783360538285762,0.04490159663607291,0.0
-0.00011462133715130377,-0.0002336889860644295,0.0001599495373261756,0.1,0.001116957943117452,-0.08036393461649742,0.045517298721747555,0.0
5.329972004461064e-5,5.577865013387545e-5,-2.4288929927048324e-5,0.1,-0.0014929542445261063,-0.08050636276298814,0.045872494399627685,0.0
-0.002416188442671255,0.0018649941533900778,-0.0070217496428427876,0.1,0.000543405006269856,-0.08194120083671363,0.0456951704745845,0.0
-0.0023169740468035674,0.0018583628640499613,-0.006943379514483217,0.1,0.0009490236234109771,-0.0781190532756453,0.044212924569827575,0.7378033980582523
-0.0027988701196131247,0.0025252262752515596,-0.006492123047466101,0.1,0.001131959867848343,-0.08066108295783109,0.04458437896641217,2.2134101941747573
-0.002767451501607948,0.002233938244660638,-0.006489954148772599,0.1,0.0018386579402829186,-0.08132583033832033,0.04338826373274121,4.4268203883495145
-0.002803050275592526,0.0025749269175899562,-0.006314905328575995,0.1,-0.0019929977694720124,-0.08253107873225969,0.04348089187739,7.378033980582524
-0.003081605205837729,0.002764054381236967,-0.0066424290442166365,0.1,0.0003813947340176755,-0.07914033981368085,0.0430290710492211,11.067050970873785
-0.0030087129724102827,0.0028282317632568354,-0.006229421086399521,0.1,0.0014950441813221939,-0.08225408632956659,0.04243429865553704,15.493871359223299
-0.0030204364676038728,0.0030184538968644767,-0.0060926436853417495,0.1,0.0019136101211401446,-0.07843863728073742,0.042684913212227414,20.65849514563106
-0.0028510379820894873,0.0026069031277718376,-0.006522903577492008,0.1,0.0008481949737257732,-0.08251321787507111,0.042782507766025886,26.560922330097082
-0.0032605945491227186,0.0031356971290686024,-0.006483224392759117,0.1,0.0014163601039245488,-0.08225705232700435,0.041955015326947634,33.20115291262135
-0.0032642154484145446,0.0030276467227901105,-0.005970996278846104,0.1,0.00014834436638974647,-0.08045023076054499,0.04129841007902579,40.57918689320388
-0.003215717430025562,0.002921322805054705,-0.0059500643415109165,0.1,-0.0014685764133280561,-0.0788312968541494,0.040590404733197284,48.69502427184465
-0.00333293659457774,0.0033026002466058652,-0.0057797237846407825,0.1,-0.00190057279366769,-0.08303070892450058,0.04085800350970573,57.548665048543675
-0.0038622284450516757,0.003580847769284555,-0.005905728198714324,0.1,-0.0005060381099999585,-0.08206358980662311,0.040487650532851235,67.14010922330097
-0.003493085293705558,0.0032066878633206213,-0.005856309138145684,0.1,0.0009311942173745539,-0.08020936640286583,0.04040472017523015,77.4693567961165
-0.0037097879870300813,0.003246946486984409,-0.005918835381163288,0.1,0.0013449040103753504,-0.0808104733367885,0.0400928113417427,88.53640776699028
-0.004180153309157997,0.0037565669647945765,-0.005748499558769725,0.1,0.000455005794966821,-0.0800630261652379,0.03959596064913367,100.34126213592234
-0.004237672085512681,0.003512905113431109,-0.005972821566760042,0.1,1.6753790763772737e-5,-0.07937158212612117,0.0394344291612025,112.88391990291261
-0.0039951893219157455,0.0038492078997900358,-0.005702921565086559,0.1,0.0011089842542697014,-0.07997063992376369,0.03892916436243675,126.16438106796116
-0.0043995285650970176,0.004147140744299286,-0.005332629135765476,0.1,-0.00026905094376949247,-0.08204449784577532,0.03879400903411055,140.18264563106797
-0.004561366975749662,0.0035682613420956587,-0.005204033032693012,0.1,0.000535671770145895,-0.08026690556493775,0.03734745623500797,154.938713592233
-0.004056408328463729,0.0038307685129609767,-0.005656800248669145,0.1,-0.0018135340171162714,-0.07841790935656812,0.037122901953810676,170.4325849514563
-0.004128760465544427,0.004023812972360415,-0.005541449279113731,0.1,-0.00038216091808224476,-0.07990343363400555,0.03730205034765542,186.66425970873783
-0.004476551889867793,0.004161384402835536,-0.004969572282170344,0.1,-0.0017749515504617177,-0.07919170279637594,0.03692188551427357,203.63373786407766
-0.00486137171470472,0.004515245811438856,-0.005328232582224772,0.1,-0.0005420640498533779,-0.08285823772194574,0.036032218042009276,221.3410194174757
-0.004408477603709876,0.004481300052433064,-0.005064999975553486,0.1,0.0011983824249538568,-0.08075681986509756,0.036021867717349255,239.78610436893203
-0.00477821671490372,0.004438836037243938,-0.004923085336797551,0.1,-0.0005345017721338057,-0.07848315694421255,0.03579031038016574,258.96899271844654
-0.004939245590563475,0.004841894447760644,-0.0046503826869132795,0.1,0.0015441178165932362,-0.07823355024952379,0.035914118407251394,278.8896844660194
-0.005200441822418204,0.0045134561626705575,-0.004914730451871662,0.1,-0.0008970941605204316,-0.08044216351745254,0.03515596049471472,299.5481796116504
-0.0047863126616864435,0.004649554790715142,-0.004627873686671838,0.1,-0.001884628708460999,-0.08211881133859597,0.034529159218374336,320.9444781553397
-0.005156303274496148,0.004778976498836371,-0.004870215141661911,0.1,-0.0004320134043103938,-0.082625201235173,0.03400573102240887,343.0785800970873
-0.005502489162761977,0.005092631228518841,-0.004183897056626951,0.1,0.0006510940959174553,-0.08015315076988358,0.03346298171302429,365.95048543689313
-0.005093960306682761,0.004971454171694105,-0.004559132575440046,0.1,-0.001126802178384683,-0.08228844227888736,0.03341070105293303,389.5601941747572
-0.005051254421129837,0.004884491557813704,-0.004248358437210558,0.1,-0.0015891738266161123,-0.0808373587527346,0.032767217128425105,413.90770631067954
-0.005683493852297554,0.005098938516295051,-0.004188742643375526,0.1,-0.001175206531615559,-0.08165253165534742,0.03280088101462874,438.9930218446601
-0.0054931452541807325,0.005188408850078522,-0.004222345554597824,0.1,-0.0018040924879866723,-0.07840105283156867,0.032042516256515316,464.81614077669894
-0.005279864615076659,0.005011144727282203,-0.00433679482139693,0.1,-0.0017801191574380517,-0.08038394774421079,0.03232336222616131,491.377063106796
-0.005660713042496781,0.005462394790794263,-0.004261156690348459,0.1,0.0009604368205624791,-0.0827808355872573,0.031332476122203606,518.6757888349514
-0.005614739592608512,0.0054650179271835886,-0.004079479899158086,0.1,0.0017146668705882518,-0.08110917986301865,0.03216284519006182,546.7123179611649
-0.0060933871407657745,0.0055581956213501624,-0.0038875647798348382,0.1,0.0011847703177471772,-0.08263618194924725,0.03090194122349562,575.4866504854368
-0.006150609859429506,0.005479393067946843,-0.00388522947479191,0.1,0.00043183008395683976,-0.08136896501031501,0.031363216207554154,604.9987864077668
-0.0058344977173707254,0.005537214462757463,-0.0033505695430132852,0.1,-0.0012003597163835053,-0.08272453016237402,0.03035715399409353,635.2487257281553
-0.0063664265780861,0.0057266364656456325,-0.003682952228555629,0.1,-0.00037974619128351277,-0.08290375222246228,0.029751593487818605,666.2364684466019
-0.0060540142944591835,0.005590066102567342,-0.0032380695969502723,0.1,0.0003700382271463215,-0.08150877705430094,0.029486895184178342,697.9620145631068
-0.006155626425120077,0.006116363141315644,-0.0034288480101338954,0.1,0.0009870116584459294,-0.08113630454310986,0.028878819432670354,730.4253640776698
-0.00614892711107256,0.006368842721334399,-0.0032751390380476135,0.1,0.0008859048265326708,-0.08046035493535422,0.02910854788808608,763.6265169902912
-0.006574803995472503,0.005801710903378665,-0.0032728303831255044,0.1,0.0006959974859141566,-0.07850002992094927,0.028968902331858195,797.5654733009708
-0.006224274563868794,0.006424397870948859,-0.003258614482837443,0.1,0.0008797543521071034,-0.07865883858657552,0.028400539190793862,832.2422330097087
-0.006217811560480375,0.006133559866661256,-0.002527444390328239,0.1,0.00030839472384336917,-0.08105760056761735,0.028185851622675204,867.6567961165047
-0.006362747084983593,0.006320857342724277,-0.002872129484091143,0.1,0.000511335481088065,-0.0822486607522036,0.027944380582766826,903.8091626213591
-0.00679281453704685,0.006584076489152776,-0.0024250406924186127,0.1,-0.0006848883162796969,-0.07940719680634407,0.027740129936428472,940.6993325242717
-0.006515821288606314,0.006244460327689118,-0.0024680852789206588,0.1,-0.00018172310280411468,-0.08255876599129248,0.027288443969843746,978.3273058252424
-0.006707920126091112,0.0067530337128736745,-0.0026108633272079614,0.1,0.0014160397089886757,-0.0792124221611998,0.02709968407063222,1016.6930825242717
-0.006872697253934291,0.0070181417357735275,-0.002218156236313504,0.1,0.0002273519177617565,-0.08085112211442988,0.025561325008714258,1055.796662621359
-0.007318371900432699,0.0068227167213666656,-0.0019801988683784038,0.1,0.0006302034381112765,-0.08038482924136502,0.02623156115620657,1095.6380461165045
-0.00732152523176552,0.00669601596906195,-0.001807227690147949,0.1,0.001569392296548404,-0.08199126069602229,0.024730614389989893,1136.2172330097085
-0.006980043315084969,0.006627058840005505,-0.0017464414521052955,0.1,-0.0013216935294494668,-0.0826118889696526,0.02543014249871216,1177.5342233009706
-0.006954349451225371,0.007104559801540686,-0.0016270475053603802,0.1,0.000950174346384192,-0.08136686944902059,0.025342656918626603,1219.589016990291
-0.007316354304288219,0.006901011379856237,-0.0014027574163515083,0.1,-0.0011131740301618413,-0.08033008187649415,0.024807121887599266,1262.3816140776694
-0.007615145133181956,0.007197192601754652,-0.0015121852717300897,0.1,0.0003797745820764769,-0.08219285978084469,0.024238861650041393,1305.9120145631066
-0.007675778052223881,0.007324330302955172,-0.001449413241126382,0.1,0.0018193478813183885,-0.08287248700028073,0.024234051194882276,1350.1802184466017
-0.007569270829568019,0.00734163732840432,-0.0017106239304751426,0.1,0.0011429639901628364,-0.07930774706359452,0.022672017467181633,1395.186225728155
-0.007410316918936397,0.007042275672790148,-0.0013563355310681124,0.1,-0.0013991123239472081,-0.08080891862946747,0.023412070139157207,1440.9300364077665
-0.007316957305602091,0.007365316930600491,-0.0012008161042053572,0.1,0.0015921341394865313,-0.07836706100844301,0.022628067391394214,1487.4116504854364
-0.00796622109889539,0.007144867623615722,-0.0012335860504625628,0.1,-0.0002159255678922336,-0.07968444712847066,0.021649072844880678,1534.6310679611647
-0.007857730472115711,0.007599087531290645,-0.0011437172213525032,0.1,0.0013789456820448276,-0.0792520107521507,0.022439633446589866,1582.5882888349513
-0.007550620559223504,0.007633998713254362,-0.0005423760702220579,0.1,-0.0008377653415817648,-0.08235293379362232,0.021980265786029372,1631.283313106796
-0.008128495687896115,0.007454008618921981,-0.0007956863665428133,0.1,0.0013607743144534925,-0.07831807467318455,0.02141543346874463,1680.716140776699
-0.007719812563667534,0.007602746148191831,-0.00035492894933989317,0.1,-0.00016855529150673648,-0.07896143879224718,0.02019154539881543,1730.8867718446604
-0.008101734292533094,0.007892172113057408,-0.00013841697009675497,0.1,-0.0004946517661519051,-0.07853024063255662,0.020549697701088224,1781.7952063106795
-0.00814619627180086,0.007505427784770779,-0.00013249852681932383,0.1,0.000977009138232926,-0.07905050843739692,0.02062734612164703,1833.441444174757
-0.008257408080283087,0.008157896286570028,-0.0004666573883643791,0.1,-0.00040335232608797075,-0.07989900281936807,0.019657505941801153,1885.825485436893
-0.008366212954473559,0.008168962372467984,-6.564333414194422e-5,0.1,-0.0019374039250647233,-0.07849873120814758,0.01916978412646213,1938.947330097087
-0.008459645680474939,0.008366492366657548,-5.0664265491448624e-5,0.1,0.00034022965433142254,-0.07932783171044673,0.018280489208147687,1992.8069781553395
-0.008712326907360025,0.008079655725087453,0.0001536258594357677,0.1,-0.0010885831775910076,-0.07956285407323258,0.018367604857165192,2047.4044296116501
-0.008648721265946473,0.008197031866990988,0.0002878870754559752,0.1,-0.0008878253912865885,-0.07963582707433425,0.018671908406164024,2102.739684466019
-0.00842278644736903,0.008502259515534783,0.00020097213134262536,0.1,0.001252358400192039,-0.0789493784511059,0.017334327121993304,2158.8127427184463
-0.008507484253324838,0.008485234748542679,0.0007165701725889239,0.1,-0.0016631536968577663,-0.08033365563724279,0.01750140749001706,2215.623604368932
-0.00870657006985465,0.008480108232719401,0.000986089792040314,0.1,0.0011203503973905647,-0.07940386965142748,0.01753888604433318,2273.1722694174755
-0.008473802549828312,0.008472727592201372,0.0005608065526144388,0.1,-0.0015012552428657628,-0.0804528402310241,0.01639687066291725,2331.458737864077
-0.009202585126261062,0.00821189242207298,0.0011404303354506818,0.1,0.0015720878314511692,-0.08286164079139398,0.015973573629231238,2390.4830097087374
-0.009198215132220886,0.00873354826407631,0.001114740893653923,0.1,0.000526997583137732,-0.08087540531401842,0.015931479643516037,2450.245084951456
-0.009017084940543043,0.00827122105513142,0.0010529368795258395,0.1,2.6024358012983636e-5,-0.0796104532873023,0.015959754671487896,2510.7449635922326
-0.009306707404203831,0.008336817684619304,0.0014143110356856041,0.1,0.0010843515898232598,-0.07883103541121235,0.01602318966539405,2571.9826456310675
-0.00927142249409199,0.008334886269677225,0.0017643173759372913,0.1,-0.0016161317717751497,-0.0830381972605493,0.01488905845687489,2633.9581310679605
-0.009445086163667986,0.008732459107029692,0.0019150655235680915,0.1,-0.0012218841238319969,-0.08064297001718777,0.014588487466674838,2696.671419902912
-0.009207201702300861,0.009017580210556911,0.0018974725999349226,0.1,0.0006146859267279136,-0.0797020544500937,0.013894389099064595,2760.1225121359216
-0.009440362302256098,0.008874608914707328,0.0019001332294756354,0.1,-0.0015031971106432521,-0.08262223435872604,0.014352012841239941,2824.3114077669893
-0.00912416968389666,0.009098883720936955,0.0022436848349753824,0.1,-0.0017102441144950626,-0.08131773963776334,0.014016712937222123,2889.238106796116
-0.009182366602077033,0.008671139483799798,0.002248471362021116,0.1,0.0006396030801507804,-0.08059387560575214,0.013837065272525782,2954.9026092233003
-0.009407085042226718,0.008515081172573102,0.001958486645661512,0.1,-0.00039036084019119583,-0.08209606713715795,0.012937129307731134,3021.3049150485426
-0.009337927664672736,0.008865555606657288,0.002352795476924127,0.1,0.00030966385818096846,-0.08289867464577866,0.012534870202590344,3088.445024271844
-0.009749876812643915,0.00883184978195537,0.0028690317357615396,0.1,-0.001019433927757325,-0.07975733724750379,0.012775779121800305,3156.322936893203
-0.009441264173400434,0.00902098504732719,0.002448051409548052,0.1,8.298719173665663e-5,-0.07951250856162867,0.011803738393473331,3224.9386529126205
-0.010086445239077608,0.009139496463531085,0.002712805387763108,0.1,-0.0005395983470182004,-0.08110676459171332,0.0110475313058177,3294.292172330096
-0.009676009326357208,0.008928304777977243,0.003036859350097384,0.1,0.00027772713312579513,-0.08002712388651072,0.011549963376158037,3364.3834951456292
-0.01004281356626841,0.009210541942879217,0.003047411636834849,0.1,0.001562998218402865,-0.08143924068729351,0.010795379742223315,3435.212621359222
-0.01037174458598201,0.009231522492391373,0.003053158305672081,0.1,-0.00019287564826405305,-0.07824241826192208,0.010286404098954084,3506.779550970872
-0.010116140190336288,0.00898765887038386,0.003659335117726073,0.1,0.0002556600885282343,-0.0824964548189969,0.009470756657692932,3579.084283980581
-0.010317313253759177,0.009367477855862068,0.003471060286966838,0.1,-0.0004679951773787287,-0.07861478620153807,0.009559702267307738,3652.126820388348
-0.010441543512306436,0.00925109497724388,0.00344847378697852,0.1,-0.0016548455710119648,-0.07881100622311842,0.009493560692570681,3725.9071601941732
-0.010296895411351707,0.009064941275747257,0.00365917229772579,0.1,-0.0014252326642457246,-0.08191522546604883,0.009401238420378103,3800.4253033980567
-0.010575562788232988,0.008962395314944136,0.0041166768851698165,0.1,0.000392602554454357,-0.07885023845233727,0.008721416194462477,3875.6812499999983
-0.0105104435184301,0.008918951318837676,0.004193667560186971,0.1,0.0006182788673962428,-0.07847346794864077,0.008541396805018699,3951.674999999999
-0.010567679190677406,0.009136178794847146,0.004061253785744962,0.1,-0.0017292855748826906,-0.08064629028136704,0.007318522882621589,4028.4065533980565
-0.010280040519870248,0.009283975157762355,0.0044154782637686124,0.1,0.0009264617313573688,-0.08196738386723669,0.007431637577281925,4105.875910194173
-0.010877691523314246,0.00900753922141249,0.004713277153352251,0.1,-0.00021228047014979086,-0.08290100170494005,0.00734182869585842,4184.0830703883485
-0.010817196400544309,0.009537982709615271,0.004493139789846038,0.1,-0.00017668556167222638,-0.07996170437191667,0.007192464165875455,4263.028033980582
-0.011173220497842515,0.00938377813248637,0.004583644602850205,0.1,0.0014615568034590058,-0.08283534791478492,0.005856224976421274,4342.710800970873
-0.011034225154291722,0.009344055407136674,0.004740614104012959,0.1,0.0017384125003408967,-0.07932434108037147,0.005563418019616183,4423.131371359223
-0.011146940053276702,0.009572997951169235,0.0050513218233554915,0.1,-0.001543477626183711,-0.07830842242010097,0.00582459696575711,4504.289745145631
-0.010978513485705055,0.009244741069482722,0.005211979157518431,0.1,0.0005721797302169879,-0.08196992682654325,0.004890327160399149,4586.185922330097
-0.011437574093268793,0.009249311037444615,0.005164572331401111,0.1,0.0017474351295548153,-0.0785536494636265,0.0050175756015386945,4668.819902912622
-0.010879699753833698,0.009178370776740857,0.00562591888033972,0.1,0.00011738507902059942,-0.08178528465098783,0.00487197215767039,4752.191686893204
-0.011424061560063084,0.009526666140098623,0.005841339484892385,0.1,-0.0007454215205749833,-0.08133487693432692,0.004078916358114446,4836.301274271845
-0.01123399426561188,0.009252322334197413,0.006205604467567075,0.1,-0.0002862515749530138,-0.08244142508826416,0.004385180926339936,4921.148665048543
-0.011454577134586811,0.009608707316976703,0.006045988568868141,0.1,0.001092084420593957,-0.08234553086614174,0.00351211758019737,5006.733859223301
-0.011747330296768615,0.009498973254356358,0.006230910724634268,0.1,-0.0007597203350444389,-0.08262265567001865,0.0035501053762481065,5093.056856796116
-0.011582372556865554,0.009246914903702767,0.006107837861768748,0.1,-0.0019621071940861177,-0.08080696075453044,0.003031870655845129,5180.117657766989
-0.011547095369662934,0.009411341628684762,0.00624171209740749,0.1,-0.0019054664240056088,-0.0782930515025309,0.002052449095549174,5267.916262135921
-0.011760274028734823,0.009483434060313286,0.006612360413490249,0.1,0.0011706895770765599,-0.0812388366745991,0.0017521406855043897,5356.452669902911
-0.01204912226772333,0.009056688104582846,0.006466845078905225,0.1,0.0005997209301178913,-0.08136462932990315,0.0011012729427841506,5445.72688106796
-0.011654364462892324,0.009013941534709085,0.006933140639075747,0.1,0.0017865944125695884,-0.08017361715130247,0.0018108274036920493,5535.738895631067
-0.011630615411503627,0.00949676498052394,0.007015306693071821,0.1,0.0019134619106148916,-0.08112407271117819,0.0003709913620378968,5626.488713592231
-0.012315357455568854,0.009466882903417234,0.007343921666121692,0.1,0.0007645642970521088,-0.08170696259268369,0.00032911792525155487,5717.976334951454
-0.012124195852293568,0.009574023139517709,0.00776354660504921,0.1,-0.0018797181290836368,-0.08187517999814548,0.00019261786283746355,5810.201759708736
-0.012088066655738906,0.009073062077686931,0.007374583273500124,0.1,9.494366948500429e-5,-0.07843650269140283,-0.0006819647339412711,5903.1649878640765
-0.012159784569117975,0.009022922734391238,0.007670896414631741,0.1,-0.0019967940222006824,-0.08268218966282036,-0.0009269208652536665,5996.8660194174745
-0.012536016331722888,0.009065629627465644,0.007798696809796337,0.1,-0.0009951273260088956,-0.08000985870742496,-0.0006722386288105465,6091.30485436893
-0.012396663388948029,0.009436937961794034,0.007891397741051825,0.1,-0.0005032978522547297,-0.0795802159091115,-0.0014767376312353085,6186.481492718444
-0.01230929509706534,0.009235011854198987,0.008574420710614282,0.1,0.0006501511139509334,-0.07820309027984938,-0.001380011936249934,6282.395934466018
-0.012664406555712777,0.009488179820891134,0.008636744899546737,0.1,-0.0007864315845761249,-0.07808983141527719,-0.001425174306290657,6379.048179611648
-0.012608417982062126,0.00884926754401003,0.00848758581902634,0.1,-0.00024154534102212882,-0.07877018813933032,-0.0027181055916402595,6476.438228155337
-0.012571422244599883,0.009293599268643187,0.008876212823158617,0.1,0.0011195043744446796,-0.08207449386373306,-0.0021867464653490512,6574.566080097085
-0.012802544569233855,0.008753495102426689,0.008933387597094245,0.1,-0.0006103291890708319,-0.07837957432545709,-0.0026996829951498,6673.43173543689
-0.013110205894862432,0.009108714580137407,0.008721932364832697,0.1,0.001411303155978138,-0.08128613150945332,-0.0038488304101924834,6773.035194174755
-0.012828760656109744,0.009289355136791931,0.00896802112469188,0.1,-0.0001831853611487145,-0.08297579904109088,-0.003785053889705484,6873.376456310677
-0.0126808486343079,0.009084888485115815,0.009361965062407331,0.1,0.0017574439524593096,-0.07880950231564122,-0.0037127409434691335,6974.455521844658
-0.01265629338231946,0.009009404200436272,0.009328152202435474,0.1,0.0014653260845834152,-0.08025739581302252,-0.00474294606508455,7076.272390776697
-0.012964138448808777,0.00923735693735207,0.009448010638532888,0.1,-0.001461735721521998,-0.0809180726950844,-0.004184371286511078,7178.8270631067935
-0.013387011202435972,0.00918467370229857,0.009903476020964199,0.1,-0.0006424531106363931,-0.08243746828665785,-0.005070904300401367,7282.119538834949
-0.013420335626775075,0.009056619644908859,0.009947367303102174,0.1,-0.0011600546678224334,-0.08145881989056532,-0.0050029609888729955,7386.1498179611635
-0.013424335094348957,0.008926083724125082,0.009874215110265563,0.1,-0.0015791134436130068,-0.07956004187154014,-0.005293582554258679,7490.917900485434
-0.013282113283757762,0.008943500712296163,0.01022671200137699,0.1,-0.0003566320121733082,-0.08156652890189456,-0.0056517511967421235,7596.423786407765
-0.013735703122476751,0.008924707103505704,0.010795923666839034,0.1,-9.348078600986019e-5,-0.08029114097997508,-0.006641719836775469,7702.667475728153
-0.013677511322342163,0.008534743879832387,0.010870210448684338,0.1,0.00019856985876304316,-0.07828335053244971,-0.006750213003153644,7809.6489684466005
-0.013716787260256718,0.008512511279811898,0.010646814147419168,0.1,0.0012221667704894472,-0.08096775517158535,-0.007050020471793732,7917.368264563105
-0.013635872335023813,0.008306507427234938,0.010777457948313324,0.1,-0.0017543141844412395,-0.08300742819111967,-0.008175292709388082,8025.825364077669
-0.013584371678066419,0.00848797093150674,0.011416731044670267,0.1,0.00019748143450654487,-0.07985894932446137,-0.00821283856823536,8135.02026699029
-0.013499701312854532,0.008146206695882955,0.011197801189990786,0.1,-0.001233833289998659,-0.080983814412396,-0.00861194331021121,8244.952973300971
-0.014208903474076294,0.00808217800522065,0.011513181957595502,0.1,-0.0011162559621488552,-0.07813155998567739,-0.008257048438597715,8355.623483009707
-0.013760098221626252,0.008024661723843385,0.011608105226420506,0.1,-0.0017683907085819588,-0.08059506288910807,-0.009026240652230682,8467.031796116504
-0.01380501141835409,0.008191368079471064,0.011879501612246733,0.1,0.0013865774992295136,-0.07806841568776626,-0.009726615159685757,8579.177912621359
-0.014329720492095833,0.007976851300492705,0.012036215222689104,0.1,-0.000701976899209697,-0.07812300312574563,-0.010146752789526387,8692.06183252427
-0.013836077511005008,0.008069288133373154,0.01229099384391906,0.1,-0.0006433651288565248,-0.08086966586855512,-0.010000843402224627,8805.68355582524
-0.01392586307603489,0.007923481208097907,0.012399050507484249,0.1,-0.0015172547402021422,-0.08008032677850929,-0.010784923801685895,8920.04308252427
-0.014271546167016367,0.007863899753619903,0.012239326091854266,0.1,-0.0010645098423989541,-0.0810018403561919,-0.010814169068830601,9035.140412621357
-0.014371722103860436,0.007986266603215083,0.012472114437279337,0.1,0.0013236669975699655,-0.08300783352516142,-0.011296409046243783,9150.975546116502
-0.014191793265460498,0.007749120954851554,0.012679887240153415,0.1,-0.0005218733798299011,-0.07838757698228886,-0.011029984254110222,9267.548483009707
-0.014847940481270364,0.00798247342848482,0.013272900435108422,0.1,-0.0009330801557892142,-0.08121648197981307,-0.012209739624285695,9384.859223300968
-0.014831058237443776,0.007988034592594019,0.01308841824929941,0.1,-0.000780448917089446,-0.07982941461677197,-0.012731752229658666,9502.907766990289
-0.014957222781972448,0.007355526723078555,0.013615983372187062,0.1,0.0005276178030337829,-0.0822207777078663,-0.012453279941257795,9621.694114077667
-0.014773414776284228,0.007299384331865607,0.013562749704354143,0.1,-0.0011879962566682851,-0.0812295330560055,-0.013409621209974576,9741.218264563104
-0.01467321463016186,0.007587660458811029,0.013968689551470863,0.1,-0.0004332954920009372,-0.08300717341049195,-0.013027409374236187,9861.480218446599
-0.015143446718008274,0.007456047468558286,0.013782423853442215,0.1,0.0005598820374280257,-0.08024854550255231,-0.013865192484943195,9982.479975728153
-0.015032273147809791,0.007000811179834787,0.014309135980902426,0.1,0.00021300473187040587,-0.07859251772897391,-0.014301180610046852,10104.217536407765
-0.015051135811597584,0.007419360193829177,0.014129857139751885,0.1,0.00041522129058792163,-0.07818000799046973,-0.01462252396858164,10226.692900485436
-0.015419754077309953,0.00680044967297441,0.01404799683499613,0.1,-0.0019132890303157296,-0.08093635638107541,-0.015075496541219407,10349.906067961163
-0.015168775267978477,0.007030840966583178,0.014576457472771401,0.1,0.0013486802706302735,-0.08276041035431073,-0.015510747380271124,10473.857038834949
-0.015192696110892098,0.00688606562563465,0.01471985644726849,0.1,-0.0017291658328462804,-0.08167861454552185,-0.015651608411623046,10598.545813106794
-0.015315692543678865,0.006683428579434291,0.01505538432204986,0.1,0.0016877230202733625,-0.08254836629750306,-0.0157854330215039,10723.972390776697
-0.015632090869175053,0.006498815251272296,0.01487376825972123,0.1,-0.0009542952333113344,-0.08041639148851225,-0.016843055939240216,10850.136771844658
-0.015653170010771666,0.006529250102083861,0.015567011716103037,0.1,-0.0006074804767211981,-0.0805191286207116,-0.01625574417610595,10977.038956310678
-0.01565810278066706,0.006466837331010136,0.015524355807858926,0.1,0.0015467449879495335,-0.0804120555487033,-0.016731408100494203,11104.678944174757
-0.015972716538712742,0.006141340088615852,0.015833173920307822,0.1,0.0019850941009813355,-0.08107411884360219,-0.016921621339852148,11233.056735436892
-0.015476801099863853,0.006510419452244762,0.01583523995492696,0.1,0.0016707156348169095,-0.08007879658730932,-0.01816033411385129,11362.172330097086
-0.015650748272173297,0.0059823635475594284,0.015600188061609678,0.1,-0.0011476673284358222,-0.07900810807851956,-0.01730856608085946,11492.025728155339
-0.016193793730560985,0.005935158617829733,0.01599914867079164,0.1,-0.0017037403473685602,-0.0790876694547215,-0.018301894836027198,11622.616929611648
-0.015608774587518342,0.006151481654772855,0.016238987608628862,0.1,-0.001613636049943135,-0.07994678486945261,-0.018676661870397376,11753.945934466017
-0.01587170405628297,0.006059106397213125,0.01613010500793116,0.1,0.0008872570760131538,-0.08294041671980468,-0.01927202555697237,11886.012742718443
-0.016364110440689313,0.0059855410659910065,0.016780447072329598,0.1,-4.8383149997302794e-5,-0.08180097504606794,-0.02007793348729674,12018.81735436893
-0.01615071599586166,0.005572827427870727,0.017145321690286455,0.1,0.0008764873881988881,-0.07983586944164502,-0.019924344675676026,12152.359769417473
-0.016519216431504172,0.005635766842426868,0.01686873446375997,0.1,0.0008560078723080575,-0.080653282299218,-0.02031696189311294,12286.639987864075
-0.016047142010350915,0.005463629001521866,0.01707056563002089,0.1,-0.0017073436725270259,-0.08182016073915836,-0.02062078674536751,12421.658009708734
-0.01668590585999185,0.005014975488057199,0.01722702746051626,0.1,0.0010087376450993361,-0.08076741290859756,-0.021293928003205988,12557.413834951452
-0.016309343000911337,0.004982207558639217,0.017593640596370436,0.1,-0.001355151290558776,-0.0819443533596173,-0.02109500406630437,12693.907463592228
-0.016539083851356298,0.0048913904122867054,0.017730334485741336,0.1,-0.0016683174676313819,-0.08035600416759565,-0.021411303045054866,12831.138895631064
-0.01625766147122137,0.0046249779603799055,0.017737132178375237,0.1,-0.00120017127763181,-0.07878644469159922,-0.022509199338522575,12969.108131067956
-0.016652674913413535,0.004948239925969492,0.017933050097954272,0.1,0.0001962816009165033,-0.08193794136033603,-0.02279781537122108,13107.81516990291
-0.016419180714338066,0.004190334958698501,0.018436179055433162,0.1,-0.0009307853822951296,-0.08003023629799454,-0.0224661063695187,13247.26001213592
-0.016772333046626942,0.004063553028292659,0.018472398769815854,0.1,-0.0020076248858276317,-0.08208865113454918,-0.022902894233360012,13387.442657766987
-0.0169757122144968,0.004552749732382951,0.018584644966494184,0.1,-0.0005584583867064544,-0.08281102054684714,-0.022980769238620455,13528.363106796112
-0.01710715402478107,0.004265343635441504,0.01855368302642586,0.1,0.0012169055599684222,-0.07807626112705492,-0.02373156248079873,13670.021359223298
-0.016977144707655833,0.0037106693158702035,0.019083098645799407,0.1,0.0018848296554155992,-0.07869283877196905,-0.023536666886839787,13812.41741504854
-0.01714701436745558,0.00362309398057159,0.019175291564793376,0.1,-0.0009258982218491751,-0.07972731148357007,-0.024629299597459665,13955.551274271842
-0.017174952979758636,0.0037815863754612727,0.019599927910852195,0.1,-0.0017651702747549026,-0.08193816301285418,-0.025331246016731684,14099.422936893203
-0.0173043080573493,0.0036360458217668547,0.01913254737606778,0.1,5.3542245846845916e-5,-0.08275453983937703,-0.02581616937075879,14244.032402912619
-0.016889050258975913,0.003297233530075542,0.01969258543297434,0.1,0.001953057894278786,-0.07972063350783914,-0.025258632594345583,14389.379672330095
-0.01336217477129882,0.000696812376435035,0.008590530217963467,0.1,0.0009629344945458986,-0.039023025647431354,-0.026315555355837853,14535.46474514563
-0.013326509021985533,-0.004700378706033019,-0.0025081664470905274,0.1,0.04326277757256104,-0.006961652569284191,-0.026618789529890847,14682.287621359223
-0.010240503873967152,-0.012623768972058665,0.0004948319905060863,0.1,0.0847123319329669,-0.013896702626335088,-0.025738352472780376,14829.848300970873
-0.010155161315442406,-0.012885176891271118,0.0005394924160149047,0.1,0.084289848428968,-0.012825343701145263,-0.02674463135495286,14977.408980582522
-0.010524033579769094,-0.013166246485318228,0.0008837340714215967,0.1,0.08528807503429424,-0.014066461376805155,-0.025919194847566083,15124.969660194174
-0.01028175524952641,-0.012804663774397667,0.0008759926484175559,0.1,0.08709116635892196,-0.009889659294349993,-0.02567418605904165,15272.530339805824
-0.010376008239367494,-0.012945745932166028,0.00042641824932725727,0.1,0.0845349097235742,-0.009796147688891803,-0.02601348926835383,15420.091019417474
-0.010014278316977819,-0.01287298726674527,0.0007334767351029672,0.1,0.08571869282949378,-0.011486877097677341,-0.02657839648809125,15567.651699029126
-0.010312852324347836,-0.012815044779678385,0.0010737107675648405,0.1,0.08695488773206902,-0.011250926969984393,-0.026468978019206453,15715.212378640776
-0.009787549756905685,-0.012758394654723865,0.000760839376646625,0.1,0.08316957933984483,-0.014221239015282649,-0.026395137583039567,15862.773058252427
-0.009846092636304178,-0.013198208769490065,0.0012128077267967012,0.1,0.08374824764212423,-0.010994255633805398,-0.02602016934085265,16010.333737864075
-0.009989744285975533,-0.012844452720924951,0.0011024697694053047,0.1,0.08663656068753493,-0.010858068180423834,-0.025911134902816983,16157.894417475727
-0.009949067073372614,-0.013020739079637696,0.0011930214121695412,0.1,0.08329302401487938,-0.01409718011925036,-0.025609710718488794,16305.455097087377
-0.009945738599867972,-0.012802810291783586,0.0007888585696978928,0.1,0.08339236834974857,-0.012008053547983503,-0.026135229926056658,16453.01577669903
-0.009849458214449925,-0.012938619433198125,0.0012978098456379275,0.1,0.08564122161425702,-0.012897430634062547,-0.02576563895536942,16600.57645631068
-0.010130468360482727,-0.013264348128201044,0.0012091002212516594,0.1,0.0830563943826067,-0.012335767155458198,-0.02651091387345945,16748.137135922327
-0.0098816180019399,-0.012718865341953756,0.0008682512452591615,0.1,0.08594651740798241,-0.011194440163491155,-0.025947116456736093,16895.69781553398
-0.009766737409511205,-0.013185988252832048,0.001149221311821187,0.1,0.08573201985000008,-0.013602219243763954,-0.02562132168256073,17043.25849514563
-0.009619284595519447,-0.012894413592271139,0.0009323472964758957,0.1,0.08363796912763065,-0.011487578757710898,-0.025555761477295703,17190.819174757282
-0.00996540760510424,-0.01311794012501843,0.001488285800874234,0.1,0.08659487398730037,-0.012171006491155073,-0.02612069304817052,17338.37985436893
-0.009624958380748849,-0.013091691661221547,0.0010206175980239682,0.1,0.08406294805457618,-0.01174425040066927,-0.02651609723120163,17485.94053398058
-0.00959780420393235,-0.013258647408194385,0.0012855569753819013,0.1,0.08465492558532492,-0.012339212727465996,-0.02612189176085423,17633.501213592233
-0.009853913027720729,-0.012845888531581055,0.001104425916506254,0.1,0.08359204211185017,-0.009656496740410248,-0.02577742986816099,17781.061893203885
-0.009726192347149675,-0.013046356558644844,0.0012495701605666355,0.1,0.0838816873672291,-0.009098497671073805,-0.025933240131217346,17928.622572815533
-0.009879237788962266,-0.012949361543921236,0.0016893612587371687,0.1,0.08500932359834651,-0.012124955786702564,-0.026325337456472423,18076.18325242718
-0.009369377497240438,-0.012711547756848629,0.0015988498400757152,0.1,0.0861290356651515,-0.013103655317424313,-0.026099537654835605,18223.743932038837
-0.009250551491119424,-0.013222135649586528,0.0012441597747710447,0.1,0.08660436940206108,-0.012295118445291273,-0.02637824652791857,18371.30461165049
-0.009297511152478502,-0.012766133279184437,0.0015557530801767923,0.1,0.08443067775247182,-0.012893209301631974,-0.025706700127602854,18518.865291262136
-0.00955715018438577,-0.013232616835421727,0.0016491733308711973,0.1,0.08641410844831325,-0.0097336957439389,-0.025634340892075672,18666.425970873785
-0.009211696904913058,-0.013208305488514233,0.0016902282853778802,0.1,0.08434966300464489,-0.01117143252573087,-0.025990847312473125,18813.986650485436
-0.009401677392652444,-0.012765852949387065,0.0017461759749651225,0.1,0.08433189147892456,-0.012711632819866373,-0.026273437843669565,18961.547330097084
-0.00924582608518811,-0.012725234669466918,0.0016478892129382651,0.1,0.0860203888632534,-0.0132045112378503,-0.026498129504404826,19109.108009708736
-0.009327269862097101,-0.013277845765645611,0.0015448313147332234,0.1,0.08541056340314433,-0.009160370200748145,-0.026633589306338377,19256.668689320388
-0.009030137230891477,-0.013308198000917832,0.0019721967301017263,0.1,0.0854134030386018,-0.010949923133481181,-0.025558402835679724,19404.229368932036
-0.009353309720909843,-0.013310826360889544,0.0015896419410541967,0.1,0.08635479622290713,-0.012024876610519033,-0.025995231770530088,19551.79004854369
-0.008976905911991117,-0.013069989938987158,0.002014322697978632,0.1,0.08594180150491368,-0.010675467893842631,-0.026301059598678504,19699.350728155343
-0.009107685586480615,-0.01282286566614963,0.001719289782087199,0.1,0.08502008721018972,-0.011016251757817477,-0.02615630332781377,19846.91140776699
-0.0088351462666717,-0.013244807262702451,0.0019015472821664464,0.1,0.08357348407281598,-0.010820866471639474,-0.025920326073053973,19994.472087378643
-0.008789076275296893,-0.013224172956870494,0.0017106599987564356,0.1,0.0836979343654693,-0.011197924534054406,-0.02604922732688738,20142.032766990294
-0.00891031728503653,-0.013066455143042766,0.0020074320896226383,0.1,0.08511059237527832,-0.01326236260144079,-0.025899032012777802,20289.593446601946
-0.008682498272406459,-0.013383456929991183,0.0018703413509529824,0.1,0.08438594097703828,-0.012415138445215832,-0.026780093128631534,20437.15412621359
-0.00877028759425243,-0.01324216809979324,0.001800528129639825,0.1,0.0845396913542095,-0.0109957188548769,-0.025776900186507305,20584.71480582524
-0.009030387138302556,-0.013234850048899686,0.002171268046655683,0.1,0.08486711945450667,-0.010503443664356772,-0.026530808300367397,20732.275485436894
-0.008774426253384579,-0.012699119728717779,0.0017747633757156807,0.1,0.08594343474553572,-0.00946233008520928,-0.02681819209410646,20879.836165048546
-0.008761145045118846,-0.013265110277871524,0.002231733004955711,0.1,0.08535616871999503,-0.008667519862666558,-0.02565415760606088,21027.396844660194
-0.008710977285659264,-0.013351976451490732,0.0022539703155785456,0.1,0.08553368597761905,-0.013433969596134,-0.025986381685862377,21174.957524271842
-0.008754482912045706,-0.013188741896025431,0.0021962406227082035,0.1,0.08450835656501787,-0.00990363182547745,-0.026802442171240923,21322.518203883497
-0.008523915244651974,-0.01268116881127009,0.0023225897766931533,0.1,0.08269546991956114,-0.013500703310228457,-0.02561541638428245,21470.078883495145
-0.008767433011397725,-0.012890801364031009,0.0018123130001489827,0.1,0.08582039001874299,-0.01041558219552489,-0.026692766153166965,21617.639563106794
-0.008675567700356991,-0.013314225645865343,0.002058610458895223,0.1,0.08607420195124477,-0.01311666653958986,-0.02680256597527806,21765.200242718445
-0.008182905760170481,-0.013090317057366045,0.002052648250685336,0.1,0.08217380621353944,-0.010197051568411055,-0.025940250292050382,21912.7609223301
-0.008173366682321052,-0.012848312015493675,0.0023443812690731023,0.1,0.08462827624679793,-0.012498758482801178,-0.026512892661292618,22060.32160194175
-0.008676675112168485,-0.013106116725796467,0.002302578976406783,0.1,0.08373308934420788,-0.008508708905617168,-0.025908823446873355,22207.8822815534
-0.00821150784883851,-0.013126073860875389,0.002311460949961418,0.1,0.08535079260533046,-0.010210960559266003,-0.025653608109694047,22355.442961165052
-0.00801915398285032,-0.01317938669243092,0.0025058854014885805,0.1,0.08474852459338832,-0.013205755202957328,-0.02574440274660702,22503.0036407767
-0.008139425926081542,-0.01271786355765828,0.0021554399229392882,0.1,0.08542092601761486,-0.00865158754310968,-0.026187444290328727,22650.564320388352
-0.008045290267675531,-0.013113641202027794,0.002596597177169983,0.1,0.08466802794869067,-0.011948684177436395,-0.025607790429387125,22798.125
-0.007903729976803593,-0.012782888177304455,0.002258473564358254,0.1,0.08359215430751607,-0.011075479030331622,-0.026462350965327897,22945.685679611648
-0.008392758593720002,-0.01289606236995738,0.002655717299141433,0.1,0.08381477801399617,-0.009167332059160122,-0.025986377907207595,23093.2463592233
-0.007843427872955413,-0.013209462926695885,0.0021973272179238424,0.1,0.0844484539433036,-0.009528541933327774,-0.025686326875360946,23240.807038834948
-0.008134134063630302,-0.01298076628001107,0.0022501800847554354,0.1,0.0856337283684956,-0.009731022532512571,-0.02635699516417567,23388.3677184466
-0.0077041137249947225,-0.013091861795022423,0.002369903705533745,0.1,0.08218465486084722,-0.008519345061649853,-0.026289077094622658,23535.92839805825
-0.007739051747551084,-0.012834166924922107,0.002649933023271738,0.1,0.0825802092361672,-0.009866328458770127,-0.02649487676147109,23683.4890776699
-0.007623393812747218,-0.013137921983195595,0.002329685780087055,0.1,0.08459887507458905,-0.009332489052918008,-0.026483745834280297,23831.04975728155
-0.007570912844925067,-0.012880615255551947,0.002695565873274166,0.1,0.08185978211222987,-0.010774686332973843,-0.026594527121056002,23978.6104368932
-0.007594818154254014,-0.01273106689831235,0.002444386642826969,0.1,0.08135177907844243,-0.010715477661292971,-0.02612144000658068,24126.171116504844
-0.007628024970855732,-0.012937589452282391,0.0025061265638704035,0.1,0.08161810924677766,-0.009067963257012198,-0.02566115302287486,24273.731796116495
-0.007971229541379138,-0.012722616851751588,0.002614368172550383,0.1,0.08458485992054555,-0.008610263316120003,-0.026458803453043894,24421.292475728154
-0.007672077832047939,-0.013137000611680993,0.0027004160771872017,0.1,0.08347670130151334,-0.008710608541957595,-0.02671631023079498,24568.8531553398
-0.00792624338321865,-0.013221196416064469,0.0028779695833664794,0.1,0.0834084341307511,-0.01285844293176305,-0.026022001457391426,24716.41383495145
-0.00735296623628911,-0.012854902885277613,0.0030211141219122746,0.1,0.08207303238524391,-0.00913939152570321,-0.02561399347474777,24863.974514563102
-0.007331335134757235,-0.012687830660707444,0.0026237269386849013,0.1,0.08220273635674145,-0.008506745406429083,-0.025820063034910443,25011.535194174754
-0.0074187413035379365,-0.01279469365980978,0.0027731644823536035,0.1,0.08323219062945608,-0.009824794135507018,-0.026215186130309442,25159.095873786406
-0.007502874308245203,-0.012547651121749083,0.0028267541999379485,0.1,0.08416482418207916,-0.009711895961203504,-0.0259970395579874,25306.656553398054
-0.007443654593035276,-0.012708373043458393,0.002897738929767743,0.1,0.08429359743674066,-0.009718745828531704,-0.026060065286653684,25454.217233009706
-0.007405397233381947,-0.012718043350890655,0.002640800624653551,0.1,0.08143872522034085,-0.011331509728516237,-0.025582179443242276,25601.777912621357
-0.00748759805189281,-0.01257545317143599,0.002675548988963341,0.1,0.08424374054215576,-0.01173721316394873,-0.026329369126185075,25749.33859223301
-0.0076411814803493605,-0.012520543152107511,0.0026479784462285303,0.1,0.08156927089480646,-0.011394536729745889,-0.026163427384920362,25896.899271844657
-0.007522676024111846,-0.012606234401577486,0.0029570436235547342,0.1,0.0831113228124677,-0.008305332327170695,-0.026246722696816445,26044.45995145631
-0.007172131196289598,-0.013008726493071046,0.003218235093671914,0.1,0.08071696884916106,-0.01086687548022598,-0.026759352678041824,26192.020631067957
-0.0074389861164208875,-0.012626005077203037,0.0032060156704337528,0.1,0.08082328565930726,-0.012648581055664356,-0.026175475294846377,26339.581310679605
-0.00740333502114245,-0.012878796886882598,0.0027744383311885516,0.1,0.08196239756945145,-0.011087270916414222,-0.025955025572953053,26487.141990291257
-0.007366939395229122,-0.01287872334040929,0.0032382020583470988,0.1,0.08093122647691164,-0.011947815584103742,-0.026794317028847454,26634.70266990291
-0.006788654560041242,-0.012589171854985004,0.003040712390760738,0.1,0.08243795160362671,-0.01003177170453228,-0.026321006891160476,26782.263349514553
-0.0071503985653165346,-0.012609403086506175,0.00289297026762467,0.1,0.08002573076413745,-0.010329479842052488,-0.026141442307806278,26929.824029126212
-0.007387983705365587,-0.012455699522462843,0.0031921011685852674,0.1,0.08043106607845357,-0.011860430828258037,-0.02649492748254776,27077.384708737864
-0.006979039462029435,-0.01240536090208984,0.0029647410929667705,0.1,0.07984060981108732,-0.010993441538833346,-0.026306408529593872,27224.945388349515
-0.007268935361169731,-0.012507224371478392,0.0031134462777500397,0.1,0.08272796188335595,-0.010835051299700376,-0.02675846636732261,27372.506067961156
-0.0066866882309355394,-0.012658899791102386,0.0031685697410176877,0.1,0.08294623196711896,-0.009808424513478258,-0.026681145853927828,27520.066747572808
-0.0067507127610436325,-0.012962982563139115,0.0033583979664835928,0.1,0.080776836306647,-0.008666006030064784,-0.026060488554464904,27667.62742718446
-0.006640423637592953,-0.012701093407605085,0.003426767547994678,0.1,0.0818996745405294,-0.009068053767507328,-0.026305147674621852,27815.188106796115
-0.007094337965655175,-0.012843864812477613,0.0029518205340488017,0.1,0.08237723206801026,-0.009318407546748033,-0.026379228060326984,27962.748786407763
-0.0070061634374760234,-0.012844399496654864,0.003413436516663606,0.1,0.08180961182552085,-0.007920736946536519,-0.025827234640667218,28110.309466019415
-0.006870667469833304,-0.012645987508591644,0.0032037072963431103,0.1,0.08105093133128492,-0.008895666758504948,-0.025986682258757395,28257.870145631066
-0.006640720390872221,-0.012704149734598937,0.0034851945384336224,0.1,0.07955822978910378,-0.010263921463364177,-0.025562919640848353,28405.430825242718
-0.006350247962491808,-0.012561825964882936,0.0034261032717764223,0.1,0.08265762112597862,-0.007866897430628742,-0.02624866304282094,28552.991504854366
-0.0062860342496728824,-0.012552047493098297,0.0029524267279747696,0.1,0.08207348354061023,-0.009683502940299231,-0.026345296529054478,28700.552184466018
-0.00672331146918993,-0.012570824518188537,0.0033826916138932133,0.1,0.08179070000828167,-0.012627378536511377,-0.025859179100974388,28848.11286407766
-0.006704516581305111,-0.012564815084479972,0.0031560547947099477,0.1,0.0799103714850781,-0.01242155056198468,-0.026027144195991336,28995.673543689318
-0.006719584478958023,-0.012698428269383222,0.003450142090992751,0.1,0.08053241573085644,-0.012038844446306747,-0.026237082249448918,29143.234223300973
-0.00622439932768309,-0.01253823505871258,0.003063701562351305,0.1,0.07907528520244317,-0.01253316778271384,-0.026759571357489867,29290.794902912625
-0.006136998467234779,-0.012500554380492454,0.003088445091711364,0.1,0.0808263469040026,-0.008166628805567408,-0.026358303102234252,29438.355582524277
-0.006089863143052423,-0.012693626634935134,0.003695839956004287,0.1,0.08147597721827128,-0.01252703792158153,-0.025992474957441464,29585.91626213593
-0.0059877888271168,-0.012156502875610889,0.0032595594540187197,0.1,0.07846282968079471,-0.010012725114165993,-0.026592910711806438,29733.476941747576
-0.006007836857768298,-0.01264075988686289,0.003161392201082187,0.1,0.07841891173031793,-0.012387645738926797,-0.026513340842041253,29881.03762135922
-0.006286306945248137,-0.012266440439033044,0.0035059846144351544,0.1,0.07924202133402217,-0.010700791874231038,-0.025866952266778213,30028.598300970873
-0.005956555847135094,-0.012129878265842263,0.003712733951104369,0.1,0.08200629064407859,-0.011571741776015302,-0.026208310301024326,30176.158980582517
-0.006326616941033244,-0.012361051071914913,0.0037089014913123802,0.1,0.07869348027400448,-0.00896986576735521,-0.026117122122775012,30323.71966019417
-0.006447811753044673,-0.01231304950635022,0.003710623778844049,0.1,0.07852394879785382,-0.010924672728598487,-0.025688749825233875,30471.280339805824
-0.005963633708558516,-0.012238327261885989,0.0031765772744270547,0.1,0.07827734454972662,-0.007513910427670535,-0.025854078502924507,30618.841019417472
-0.005903040250713017,-0.012683303921104406,0.00363366624498476,0.1,0.08110250863658719,-0.008449195901574509,-0.02581090960095757,30766.401699029124
-0.006042089655438907,-0.012130442909960836,0.003553253762337105,0.1,0.08078388607665686,-0.008499164333319617,-0.026218523323086655,30913.962378640776
-0.005852144727940273,-0.012563059650992452,0.003225124210593301,0.1,0.08140347236664318,-0.009651182213698371,-0.026094031071629543,31061.523058252427
-0.005693486528405242,-0.012433838145083222,0.003384238874494717,0.1,0.0808580153023872,-0.007707574284524723,-0.025753338654011325,31209.08373786407
-0.00608264691761999,-0.012112163944929017,0.0033629280631766525,0.1,0.07930200963392393,-0.012344678087132207,-0.025738954039560495,31356.644417475723
-0.005513152149955243,-0.012346264861264998,0.003335683614090674,0.1,0.07795722468063467,-0.011066911617590004,-0.026066900343890073,31504.20509708738
-0.005998519990460511,-0.012298421410730027,0.0035959046114490394,0.1,0.07744059977507489,-0.007877216452259249,-0.02565585171087928,31651.765776699027
-0.005687684865196274,-0.012164840872231223,0.0032954030705597864,0.1,0.07842876438745747,-0.008010387305140238,-0.026496554476834817,31799.326456310675
-0.005780416431228102,-0.012085322382050501,0.0038637409198600562,0.1,0.07974374951590345,-0.0077630327954207315,-0.026330447014316326,31946.887135922327
-0.00565187738575197,-0.01217621448661632,0.0036553903453032995,0.1,0.07986711386303479,-0.008665846945766395,-0.026452823676151208,32094.44781553398
-0.005783005502559589,-0.012162439574601466,0.0033771306086373878,0.1,0.07954673833501215,-0.007311946825703087,-0.026198666664192714,32242.008495145627
-0.005835548665909767,-0.012324491292937176,0.003769131484125281,0.1,0.07649075242282453,-0.008580538965620985,-0.026468134506471622,32389.56917475728
-0.0053532260332536125,-0.011869205074104048,0.0040179667451135034,0.1,0.07717734183022061,-0.011166388058840657,-0.026355371289841164,32537.12985436893
-0.005335822396831154,-0.011980896270682764,0.0038023680107299976,0.1,0.07834073548562594,-0.0110228218034409,-0.026847714879395693,32684.690533980578
-0.005212908854574168,-0.011991545181658845,0.003712447118666976,0.1,0.07925616543766074,-0.011502634537239008,-0.025878975107819346,32832.25121359223
-0.005505022639331849,-0.012112794060399753,0.0038662956413802723,0.1,0.07781980556004829,-0.01171286744970565,-0.025759242953561592,32979.811893203885
-0.005519774877761187,-0.012059046025972815,0.0036999487494991947,0.1,0.07771978842143214,-0.007269731782449593,-0.025935262857426852,33127.37257281554
-0.005536252713601692,-0.012426300192037413,0.0038855270819078114,0.1,0.07904630406120346,-0.011029374172851788,-0.025536768033559188,33274.93325242718
-0.005158611834572613,-0.01194870988437475,0.0035686773747303107,0.1,0.07955302121345807,-0.008440046986588552,-0.025717733531213944,33422.49393203883
-0.005491711714307169,-0.01220093264641755,0.003882912844947167,0.1,0.0778845710442369,-0.011101526052113697,-0.02682452121521697,33570.054611650485
-0.005091074517890484,-0.01236356200031068,0.0039863344091015515,0.1,0.07693180437599477,-0.009659331287057002,-0.02664460677062396,33717.615291262126
-0.004987891097239052,-0.01192263182982702,0.0036586638932333054,0.1,0.0791808117450573,-0.011214189798096089,-0.025516535465871047,33865.17597087378
-0.005161075246030903,-0.011814241714639327,0.0036982285970773065,0.1,0.0770797110147112,-0.007479401054939851,-0.026408044740187167,34012.736650485436
-0.004927499694283971,-0.011914083052841595,0.003552384321745658,0.1,0.07640528614886452,-0.011557612753906921,-0.02567543587035945,34160.297330097084
-0.005386397545628037,-0.012275039145800734,0.004040203499894129,0.1,0.07630958320708782,-0.011135360360295481,-0.026297995149691958,34307.85800970873
-0.005418135789339912,-0.012078678067866916,0.0040377097842084955,0.1,0.07807862894735805,-0.007000619115828577,-0.025741510960667312,34455.41868932039
-0.005112266950036362,-0.011982008969547223,0.0036254296307117097,0.1,0.0762251385762465,-0.007953051557669953,-0.026072919460487638,34602.979368932036
-0.004693746606650232,-0.01183870901873719,0.0037586327651475786,0.1,0.07645293791857895,-0.0076690563801679,-0.02655906467185756,34750.54004854369
-0.0046871871391512485,-0.011666537603898453,0.003929865072879463,0.1,0.07660168493253372,-0.010142835897369255,-0.02591744564003861,34898.10072815534
-0.004996025202455978,-0.012006956275697983,0.003566575382725631,0.1,0.07443514339420612,-0.010905089401507063,-0.026540420792699377,35045.66140776699
-0.004840749098467285,-0.011530123155522144,0.003971220335532101,0.1,0.07470736016824865,-0.010858638599061873,-0.02572920610763531,35193.22208737864
-0.0047920604662652815,-0.011958654404522734,0.0036916205540220995,0.1,0.07680336583767085,-0.010755964588930233,-0.026856731313339134,35340.7827669903
-0.004926597787128712,-0.012029158051853025,0.0038013422866375168,0.1,0.07571701687331871,-0.011611167160533639,-0.026265716018844153,35488.34344660194
-0.0051374683141299175,-0.012120101457214916,0.004056504677444823,0.1,0.07514346777602918,-0.008492818210479165,-0.0264127347135172,35635.90412621359
-0.004753893969242111,-0.01185727663370629,0.0037484443450932292,0.1,0.07477331455399622,-0.01160095722617144,-0.025833162768032637,35783.46480582524
-0.004882627680152807,-0.011656904395638313,0.003684656092704088,0.1,0.07669281431202339,-0.008769622030179565,-0.02645799094269122,35931.02548543689
-0.004813353448766636,-0.011540340982227892,0.00375173717957338,0.1,0.07469629805293214,-0.009353510493809208,-0.02620943438021968,36078.58616504854
-0.004319392046545161,-0.012032911946966741,0.003902229247733644,0.1,0.07453283109385353,-0.008058427984283948,-0.02612087440132673,36226.14684466019
-0.004942424964705693,-0.01156372267677356,0.003722456722226926,0.1,0.07480129416347568,-0.011357965113092151,-0.026290408457676884,36373.70752427184
-0.00473116457348394,-0.011390304795146385,0.004001782327280223,0.1,0.07590663684284012,-0.008427993211371977,-0.025583829520158217,36521.26820388349
-0.004301349239295493,-0.011915643447934558,0.0040673591894785765,0.1,0.07358598379028404,-0.010624110940158443,-0.026418450017475077,36668.828883495145
-0.004809837309714159,-0.011665111311900294,0.0041633047320511945,0.1,0.07488626095211547,-0.010924935517822875,-0.02683387721502158,36816.38956310679
-0.004553076428792835,-0.011694241247133771,0.0038725513850584154,0.1,0.07572020173504812,-0.01089657179873832,-0.02625420312643101,36963.95024271844
-0.004642724158282949,-0.0119063823821245,0.004310124457303209,0.1,0.07456570463572022,-0.009993173025628114,-0.026571210653822917,37111.5109223301
-0.0046234663460403775,-0.01120009023668378,0.004000171079961732,0.1,0.0730716419968464,-0.008686608637728487,-0.026051899007458648,37259.071601941745
-0.004223839362218182,-0.011756865098741657,0.004276435000542653,0.1,0.07310357754123475,-0.008292508239394227,-0.0263261002143038,37406.6322815534
-0.003996849145086712,-0.011733816933806103,0.0039367535043178855,0.1,0.07491473916777068,-0.010983241597379505,-0.025683100905761914,37554.19296116504
-0.004086791548407929,-0.011591619961866745,0.0038138796442417746,0.1,0.07253371564306,-0.007020753815435772,-0.0267844281330457,37701.7536407767
-0.004182481638874918,-0.011464682575538555,0.0040308738210658585,0.1,0.07484890880715064,-0.007587954133233628,-0.025722628815157966,37849.31432038835
-0.00396069016669819,-0.011119553362262663,0.003849317699428217,0.1,0.07420636677347235,-0.01033636816183296,-0.02557573674318663,37996.87500000001
-0.004278078452936685,-0.011638962501705595,0.004313042639375786,0.1,0.07496278576456164,-0.009558510806566377,-0.0255843170640581,38144.43567961165
-0.004320298530203003,-0.011100639087623208,0.003890160872243379,0.1,0.07488601317151647,-0.010127871723645968,-0.025784200562135665,38291.996359223296
-0.004350994534244285,-0.011627851179002972,0.003841210829918053,0.1,0.07358692014262679,-0.006782500394040589,-0.026636553238139002,38439.557038834944
-0.00401976685199353,-0.011580632431214632,0.0038039588392877765,0.1,0.07244214899953944,-0.008605286262200437,-0.026066820600819135,38587.11771844659
-0.00380486373307078,-0.010995441897583733,0.003935826117159124,0.1,0.07090095526165778,-0.010532148161536473,-0.02585410902376941,38734.67839805825
-0.004067439664756873,-0.011193336849985787,0.004348064783069925,0.1,0.07401029571060747,-0.0112272569972986,-0.02557928148521885,38882.239077669896
-0.0037208164198044296,-0.010998331581714182,0.0038077947523752036,0.1,0.07198982457865691,-0.008759964152988024,-0.025601659892738545,39029.79975728155
-0.004294553059340021,-0.011465008839035782,0.003956572617450793,0.1,0.07146198894062752,-0.010008994634231537,-0.02592691483536989,39177.3604368932
-0.004177549145838501,-0.010947101017637373,0.003953182723259914,0.1,0.0721988925297073,-0.010245247517499027,-0.026208737024471254,39324.921116504855
-0.004159207816735386,-0.01135948128192116,0.00400872239471359,0.1,0.07125314099669051,-0.009039712222484028,-0.026726901154899448,39472.4817961165
-0.004066180611814445,-0.011236643129865291,0.004131381487476637,0.1,0.07013678314173698,-0.007823501287710458,-0.025744852494428375,39620.04247572815
-0.003931419514261293,-0.010921035642619203,0.004143676125121617,0.1,0.07274184277290086,-0.008893474532761571,-0.026002708028940082,39767.603155339806
-0.003817418421324921,-0.011185830771557792,0.004186727410686879,0.1,0.07304384177823564,-0.007872443690126445,-0.025509112936408097,39915.163834951454
-0.003914162383870702,-0.010891471954255055,0.0042712961966546595,0.1,0.07126183511365708,-0.0102457225479346,-0.02571698097667276,40062.7245145631
-0.003938651762047159,-0.011097231518279077,0.0041386231520626855,0.1,0.06944785290767017,-0.010621603554192852,-0.026048886789958533,40210.28519417476
-0.0035821303946056405,-0.010948539574723287,0.003752966438408983,0.1,0.07042609091323186,-0.008454607343462634,-0.026652738110297742,40357.845873786406
-0.0034480900690416643,-0.011418480980853102,0.0038009023501647497,0.1,0.0711312693732816,-0.010342767505770489,-0.026450674581647817,40505.40655339806
-0.003922805446943583,-0.010725849167039198,0.004060232584641625,0.1,0.07104117133995747,-0.00632872863909569,-0.026800955276668936,40652.96723300971
-0.003736468404797873,-0.011169054619072305,0.0040339939227476114,0.1,0.06952477052034406,-0.01081178703981243,-0.02665117089865858,40800.52791262136
-0.003356193715959141,-0.0107055334256915,0.0039252451755209285,0.1,0.07147585187700167,-0.010813913318404603,-0.025745592387321093,40948.088592233005
-0.0035524528443130763,-0.010996811521055036,0.003844999118755889,0.1,0.0719346673123971,-0.010269201546177095,-0.026009782863840404,41095.64927184465
-0.0031686999241721625,-0.010965722053208744,0.004187415492932183,0.1,0.06906414588177102,-0.006247546025588676,-0.025726330920930504,41243.2099514563
-0.0033134381405846253,-0.01073725648607847,0.004359503941121052,0.1,0.07098521153221662,-0.006089167629731648,-0.025506795326307855,41390.77063106796
-0.0032786841072504538,-0.010969545522352617,0.003721981071464217,0.1,0.067764991202993,-0.00758063971522176,-0.025654587816327703,41538.331310679605
-0.003266713711425772,-0.011011080313797493,0.003800494476028887,0.1,0.07046180092136244,-0.006607693978336719,-0.02602968975985575,41685.89199029126
-0.0033632896254946346,-0.010900484733980158,0.004215471008513219,0.1,0.06826620161227287,-0.007339455625277427,-0.026254735502020513,41833.452669902916
-0.003001877287988157,-0.011126648008184175,0.004256333640015668,0.1,0.06924892126588492,-0.009204759472159697,-0.026385969696391644,41981.013349514564
-0.003435908398437173,-0.01072060029712766,0.0038695727565172433,0.1,0.06791884442795774,-0.009885859835078824,-0.026575401399653673,42128.57402912621
-0.0033539715122543265,-0.010690077105553563,0.004044504833664977,0.1,0.07011518263304171,-0.01005117733593092,-0.025794792216181448,42276.13470873787
-0.0030572529546351243,-0.010931070707459628,0.004354312109244596,0.1,0.06792681526738821,-0.006323753587067196,-0.026308969262090216,42423.6953883495
-0.0030888942127959514,-0.011022047676900716,0.0042093126835518494,0.1,0.06765664679406416,-0.010683253635174403,-0.02683566928485542,42571.256067961156
-0.0029329684787770083,-0.010672417716175112,0.0043000799777150635,0.1,0.0675561667600985,-0.009471524306953381,-0.026613639916921908,42718.816747572804
-0.003486396926799618,-0.010929744396873881,0.004281088906973553,0.1,0.06819117862036807,-0.009597499081075204,-0.026845546502634925,42866.37742718445
-0.0034070167433107503,-0.010363177454243453,0.0041420771001802045,0.1,0.0670372019466018,-0.008403078493239414,-0.026351713761292087,43013.93810679611
-0.0029920336064494634,-0.010474706382519006,0.004203888654002174,0.1,0.06610681972650811,-0.005953548733975108,-0.02582535408493413,43161.498786407756
-0.0028058870865591457,-0.010932824362793763,0.004245312900467347,0.1,0.0666594713800126,-0.006587123332245575,-0.026438652202487856,43309.05946601941
-0.003083313720787861,-0.010510162629367931,0.003741445325548937,0.1,0.06614790246887446,-0.00811407630073831,-0.02655127951513217,43456.62014563107
-0.0027095255963576806,-0.01050893151680648,0.004308544296716972,0.1,0.06818162133111683,-0.010445556860445005,-0.02639605416994067,43604.18082524271
-0.0030931140306586823,-0.010673233400891137,0.004118369386040385,0.1,0.06782177955526972,-0.008348974107626717,-0.025788512978368296,43751.74150485436
-0.0031177917098513088,-0.010285421592505936,0.004104512657260228,0.1,0.06613366245364607,-0.008977777260597031,-0.026458569229499497,43899.30218446602
-0.0032415423679987825,-0.010426189023671534,0.004042394286880027,0.1,0.06771493793241395,-0.007217705348198214,-0.02650143769479335,44046.86286407767
-0.0026904048077642244,-0.010856337271960887,0.004329450657907833,0.1,0.06660149513857154,-0.0098625714430811,-0.025780710260110366,44194.42354368932
-0.0026503399066825986,-0.010727161757540151,0.003913691935596247,0.1,0.06798118783298929,-0.007470509460318555,-0.026719729818602767,44341.98422330097
-0.002518312253326678,-0.010396711692598842,0.003911506272825812,0.1,0.06641812178862615,-0.00825404990789205,-0.02597150713731078,44489.544902912625
-0.002964940243703596,-0.010284504010921429,0.003802620244175195,0.1,0.06563923500244932,-0.005741686658230969,-0.025723408863129057,44637.105582524266
-0.0030012337061289204,-0.010278725172697544,0.00417612650786767,0.1,0.06438665769077066,-0.009995392224412035,-0.025743816111333345,44784.66626213592
-0.003076784189909451,-0.010314006788063443,0.004291258474491461,0.1,0.06554269487178305,-0.010253354869977692,-0.02561765680993188,44932.22694174756
-0.0028907616380386926,-0.010086875736838884,0.004164692927774766,0.1,0.06438826253693368,-0.010241724630657792,-0.02637357278474888,45079.78762135922
-0.0029736472423352936,-0.010653153419465843,0.004216098970203636,0.1,0.06721337823028133,-0.009768648488069522,-0.026299970415332847,45227.348300970865
-0.002932479065408149,-0.010192468570610272,0.003977516198676679,0.1,0.06695547950625165,-0.007594189762210349,-0.02613141041536377,45374.90898058252
-0.002862657978872007,-0.01015108031604467,0.0038439842949981274,0.1,0.06577307627082782,-0.006602226116646539,-0.026465691320495494,45522.469660194176
-0.002947593256697278,-0.010095935086040425,0.003994967351580892,0.1,0.06651840737019271,-0.007398696711961301,-0.02609575254308133,45670.030339805824
-0.0022531785104091735,-0.010137589121342046,0.0037341859175690027,0.1,0.06347089750145625,-0.009380315108286713,-0.02620254288096704,45817.59101941747
-0.002556361059700582,-0.010018723430176476,0.0037919809019525694,0.1,0.06613989426404387,-0.010190725491944547,-0.02573162481799149,45965.15169902912
-0.002774210392974407,-0.010114965078827828,0.003818018346589473,0.1,0.06265505013680144,-0.005844518705041122,-0.025979165637948796,46112.71237864077
-0.002602100977976732,-0.010314781783940439,0.00429975695693357,0.1,0.06440887854074312,-0.006693741439371368,-0.026502336549412198,46260.273058252424
-0.002533334163605418,-0.010053501809578978,0.003835126037331263,0.1,0.0630367220010517,-0.00868274214673998,-0.026541227297035938,46407.83373786408
-0.002142308962676155,-0.010017558823000998,0.004193003661911779,0.1,0.06424922940446672,-0.007066385305712334,-0.025589945386569012,46555.39441747573
-0.0027194020947029843,-0.0098791217407046,0.003612439182614533,0.1,0.06505277639178847,-0.005415886058240951,-0.025726210875394263,46702.955097087375
-0.0021150102371239607,-0.010077158778512235,0.004141234414963523,0.1,0.06362361016457105,-0.006955251407843539,-0.025925127209845036,46850.515776699016
-0.0024424589823437808,-0.010262055510569265,0.0040422204997417185,0.1,0.06114916442025976,-0.009590996248772259,-0.026244488287734766,46998.07645631068
-0.0025931313980861064,-0.010306170907648269,0.003642616418749838,0.1,0.06358292045492253,-0.005506388252811755,-0.026670739837477746,47145.63713592232
-0.002281835008139297,-0.009836366656293248,0.0037021859203734044,0.1,0.06308781062159606,-0.0065362068686907505,-0.02674361967770273,47293.19781553397
-0.002198265220060702,-0.009990533661048373,0.003901768928400398,0.1,0.06399091833377064,-0.008341308005696919,-0.025978377166197872,47440.75849514562
-0.00203764452739468,-0.010037092525238357,0.003577268921906915,0.1,0.0624998251530406,-0.007147279732678187,-0.02634967525783731,47588.319174757286
-0.0020362051640867075,-0.009668923824530343,0.003968533722937521,0.1,0.06004238369950718,-0.00512818261919417,-0.026420160842767538,47735.879854368926
-0.002441677224710655,-0.009701827915936163,0.003706105891089398,0.1,0.06176268559523769,-0.005186807146622169,-0.025997652343240366,47883.44053398058
-0.002532006811102952,-0.009913830625414066,0.004004140509099568,0.1,0.059977924432962265,-0.007244813964528095,-0.025788596152234118,48031.00121359223
-0.0019568896251558696,-0.00986242734217589,0.0039582846701331,0.1,0.061366847986842166,-0.008900712000903086,-0.025950370527144155,48178.561893203885
-0.002345552501256563,-0.009689634361378673,0.004044609426480607,0.1,0.06276677809252747,-0.0071641185111612415,-0.02641966581549855,48326.12257281553
-0.002217593427870399,-0.010029910875805367,0.004003533217044391,0.1,0.06266250666028345,-0.009524115268976032,-0.026078784707752187,48473.68325242718
-0.0023559738194367957,-0.009726273529440523,0.0040706321979294725,0.1,0.059131251076098096,-0.00591193031177636,-0.026101092184197355,48621.24393203882
-0.0023147675266880154,-0.010013765684579783,0.003941199025960421,0.1,0.06241445454929437,-0.00754997162007779,-0.026365342037933153,48768.80461165048
-0.002088777899105335,-0.009861480243118899,0.00382836170117819,0.1,0.06050029220884961,-0.005419270284118757,-0.026386464104835902,48916.36529126213
-0.0019201986419751045,-0.009592991821973134,0.003956543826396655,0.1,0.06186775458113562,-0.009787274973130807,-0.026268884495875795,49063.92597087378
-0.0016686454915093296,-0.009787469105516507,0.003653716399383109,0.1,0.05889130327225115,-0.004958210335219734,-0.026345462076616043,49211.486650485436
-0.002139129473756865,-0.009593874076486746,0.0035123889272605066,0.1,0.059827040416056326,-0.00507746021035683,-0.026761920327715145,49359.047330097084
-0.0021573194306854985,-0.009838613483175643,0.0037519218025951692,0.1,0.060452176850411724,-0.005703988846243783,-0.02659851450307844,49506.60800970873
-0.0017163018733769785,-0.009792686789972652,0.003952225192566581,0.1,0.060938567935109364,-0.006138957139934955,-0.025692399408068955,49654.16868932038
-0.0018653080334051456,-0.00947633182665065,0.0036207296910003703,0.1,0.057718229399610486,-0.00485821992767115,-0.025912497255054283,49801.72936893203
-0.0015941549853435283,-0.009484943891691409,0.004003052795064105,0.1,0.058721923825525386,-0.007893130020983262,-0.02670417854334433,49949.290048543684
-0.002152212149590311,-0.009646007922126693,0.0034805693490141,0.1,0.058882603797227,-0.005025430614061652,-0.025936533698970227,50096.85072815534
-0.001681397867373245,-0.009705570735422756,0.0038209343399884907,0.1,0.05678317185022949,-0.00941930957888248,-0.026857323555825378,50244.41140776699
-0.0016463035269940374,-0.009334162351446159,0.0038244804334533417,0.1,0.0570479355602118,-0.00883417310041829,-0.02600323078700369,50391.972087378635
-0.001667366058050086,-0.009358062181468795,0.0037862851823652313,0.1,0.056349597855866226,-0.0070965102014952765,-0.02670205036518285,50539.53276699029
-0.0014548172255212455,-0.009267986789838709,0.003997292595843889,0.1,0.05793061244527757,-0.007199974120531484,-0.025703908224230056,50687.09344660194
-0.001774103630539512,-0.00962125748993748,0.003945671740247614,0.1,0.05721154074971831,-0.005133297111635435,-0.02552066929778792,50834.654126213594
-0.0015592452435726244,-0.009452067424830473,0.0038116052913714136,0.1,0.05717296689350169,-0.005243921272814298,-0.025737699070967682,50982.21480582524
-0.001999164908513718,-0.009214755649260161,0.0038574778245825873,0.1,0.05764993539803979,-0.0050470777381359504,-0.026402761804681218,51129.77548543689
-0.0017955068177582707,-0.009550312573305804,0.0036218233629261055,0.1,0.056011243089297585,-0.004679256131828466,-0.026371305791375955,51277.336165048546
-0.0019118788043786103,-0.009232758078422946,0.003331491557826514,0.1,0.0559893569721245,-0.009138060499747079,-0.025861890732681206,51424.896844660194
-0.0016448735109427333,-0.009566724903956198,0.0034613506505346875,0.1,0.05662155218786899,-0.009015408312483889,-0.02632172272697201,51572.45752427183
-0.0016739161374656538,-0.009217655762637382,0.0036800257348323013,0.1,0.05721947349463546,-0.005462048027269224,-0.026664077442883457,51720.018203883476
-0.001445041306237905,-0.009387306233640532,0.003693884876730783,0.1,0.05593178964596974,-0.005427050351679069,-0.02553159533050146,51867.578883495145
-0.0012413957261510915,-0.009318658673052102,0.003949551417564922,0.1,0.05442247943667425,-0.005781186982363751,-0.02599502074835747,52015.139563106786
-0.0013622537603037027,-0.009027142353985133,0.0033549430684143974,0.1,0.05690766496879963,-0.008903639766652656,-0.025539391777209982,52162.70024271845
-0.001565969459386471,-0.00900492899610917,0.003727103319276932,0.1,0.057595222879638225,-0.004671673109259547,-0.026190509498879903,52310.26092233009
-0.0014792045516585975,-0.009575011147890887,0.0033420304024569048,0.1,0.05435007655365433,-0.005731124862354232,-0.02611464809866902,52457.82160194174
-0.001697360955221596,-0.009188677438627751,0.0036661094984830702,0.1,0.05610362414504596,-0.006178917092983558,-0.026678206979926615,52605.38228155339
-0.00126316358521595,-0.009629251441878907,0.0038618256881693042,0.1,0.05315034720762538,-0.0051985392814063724,-0.026130036376361132,52752.94296116504
-0.0013731607881552303,-0.009424481087686459,0.0035718148134848996,0.1,0.05551744568877603,-0.007551263135507693,-0.026419524266140863,52900.5036407767
-0.0016202637808292175,-0.009492740540336973,0.0034741574297744928,0.1,0.054154863439487916,-0.004436186879036399,-0.025629098298015515,53048.064320388345
-0.0016520059752958272,-0.009475670881881,0.0032569858025716775,0.1,0.05338010191804648,-0.005816983420911417,-0.026699954417300522,53195.62499999999
-0.0016988858954214885,-0.008891152262025862,0.0034333066221371466,0.1,0.055566429596111556,-0.006085647202849781,-0.025552566750811814,53343.18567961165
-0.0015451960422353573,-0.009377562517511885,0.003774353827278431,0.1,0.05411786408317676,-0.0051430938158636575,-0.026580349425806244,53490.746359223296
-0.0011870324886881782,-0.009450134501657182,0.0032662315635887664,0.1,0.05548880318362507,-0.006555106215359829,-0.025898850803054322,53638.307038834944
-0.0013254299922267562,-0.00895175805301385,0.003423412263582458,0.1,0.05497881490095034,-0.005518352935767625,-0.02622229722860308,53785.8677184466
-0.0010380032883750678,-0.009078834023453827,0.0034715723962621026,0.1,0.05335481729914293,-0.005367023890234746,-0.02622393420582128,53933.42839805823
-0.0010404241051008441,-0.009080399547757221,0.003341534105054523,0.1,0.053153039491099105,-0.007536682034493578,-0.02554156743390868,54080.98907766989
-0.0013884112908014834,-0.008989041012601099,0.003407104093087564,0.1,0.051629200144589535,-0.00793319714385778,-0.02632409108833211,54228.549757281544
-0.0013781907852308806,-0.008921551370144627,0.0032746174574677833,0.1,0.05288578809109433,-0.007584301087581112,-0.0255734893364304,54376.11043689319
-0.0011578772361721717,-0.009208270019758222,0.003272512715681859,0.1,0.05108774801366576,-0.004912990972737701,-0.026190073212270973,54523.67111650484
-0.001470129407096888,-0.00869952556025771,0.003460085600903011,0.1,0.053543563662814105,-0.0062752598580605385,-0.026085832659032422,54671.2317961165
-0.0011571041848344246,-0.008918694136139955,0.0035066262426142044,0.1,0.0514241651538865,-0.007181099809697057,-0.026440527508789252,54818.792475728165
-0.000867914413724722,-0.008663063682891443,0.003488221067231425,0.1,0.04965100472251515,-0.00429726271287194,-0.025821561347468155,54966.353155339806
-0.0007716850733062845,-0.009306999897827664,0.0032916950394750273,0.1,0.05085873872099984,-0.00848529948618776,-0.02578883973739555,55113.913834951454
-0.0010931972928797903,-0.00900199295440477,0.0032672544726339912,0.1,0.05157968711491303,-0.00879435382259682,-0.026754562737324038,55261.4745145631
-0.0009526120199456209,-0.008770543517898995,0.003428695661749745,0.1,0.04900641898856488,-0.008897751200741757,-0.026129859703486743,55409.03519417476
-0.0007386112747840344,-0.008875501225853948,0.003074670888928044,0.1,0.04966910526955815,-0.006558655143373456,-0.02604503731571891,55556.595873786406
-0.000755191770774773,-0.008930718186576361,0.0033689363646580827,0.1,0.05110329506721518,-0.008014049443028116,-0.0255602666925691,55704.156553398054
-0.0010890780966041316,-0.00864276663258456,0.0034358594820796825,0.1,0.04927335122371136,-0.00650962671392015,-0.026405745891760354,55851.71723300971
-0.0010337230189677604,-0.008941596516729905,0.003288803271806135,0.1,0.04917455318490142,-0.0059358983846657404,-0.026586278902403334,55999.27791262136
-0.0007991053203368642,-0.0086127107314453,0.003279993048023412,0.1,0.0516561839605472,-0.004026999680642884,-0.026608921265271403,56146.838592233005
-0.0011986647531279633,-0.00905372061960138,0.0029694204874919808,0.1,0.05120138339366503,-0.003986539733131116,-0.02647849211490439,56294.39927184466
-0.0009496611893234751,-0.008688143072165458,0.0030787961243646297,0.1,0.04860015785024781,-0.005190934554486202,-0.026073591887078425,56441.95995145631
-0.0006319081800793572,-0.00858154022243018,0.003456865343971937,0.1,0.049231073076574,-0.006450291535290587,-0.02553356243212474,56589.520631067964
-0.0007184139370376865,-0.008598055769705688,0.0029877203197231756,0.1,0.04690172401159114,-0.004691288540885342,-0.026309061068462536,56737.08131067961
-0.0006899318352776449,-0.00888915735089644,0.0031809103577210606,0.1,0.047289162893260996,-0.006075173762292916,-0.026787386464746078,56884.641990291275
-0.0007959896130862105,-0.008656849386802338,0.002981224659429048,0.1,0.049302175887786306,-0.006457589239116719,-0.02672183464295782,57032.20266990291
-0.0009796975913119986,-0.008921511181773962,0.003007325367228636,0.1,0.048788494937692266,-0.006800395909506322,-0.026737822555477908,57179.76334951457
-0.0006388801963843257,-0.008382868810440446,0.0028697420272556238,0.1,0.04876799260575116,-0.006223436625085117,-0.02553389813740478,57327.324029126205
-0.0009011779255283965,-0.00896983215456052,0.003079185606120622,0.1,0.04676601366319793,-0.00602266897416521,-0.026842562291187876,57474.884708737845
-0.0009974021022565857,-0.008514157779743563,0.003253846592663737,0.1,0.04550262106966702,-0.005041064029629553,-0.02686346020586961,57622.4453883495
-0.0006882697758073753,-0.008427669148727519,0.0031736611853031465,0.1,0.04565085559510692,-0.003932734716505074,-0.02612001054718452,57770.00606796115
-0.000513900440246725,-0.008570298627206692,0.002892774034480291,0.1,0.04716532997444332,-0.007663630669220291,-0.02605221101916069,57917.566747572804
-0.0009000523641199172,-0.008684654461077504,0.002771530450159347,0.1,0.047678061310563846,-0.007939729764928223,-0.02623801565495072,58065.12742718446
-0.0004784359230854642,-0.00843133461228113,0.0032478093993459217,0.1,0.046568504168641514,-0.006531873732183816,-0.026708809778443983,58212.688106796115
-0.0007610532634827931,-0.008411414024804708,0.0027716790135403676,0.1,0.04717923964031664,-0.005986380544587473,-0.0261141079315731,58360.24878640776
-0.0005283905604445817,-0.008926761175871531,0.0033804213931128663,0.1,0.04787265880449045,-0.007938125660597055,-0.026123235613867864,58507.809466019426
-0.0008017379054250885,-0.008772614773753342,0.0031206689117099264,0.1,0.04635705618451145,-0.005946993422142932,-0.026572831059201992,58655.37014563107
-0.0007754373582591057,-0.008712290887242364,0.0031333555109869867,0.1,0.045402292948413754,-0.003759777746117296,-0.02616078032572874,58802.93082524272
-0.0004248880945281374,-0.00857074248994236,0.0028321984788660134,0.1,0.04533043208305095,-0.005334776791779039,-0.025500475992718857,58950.49150485436
-0.0003949558991758487,-0.008797733442318764,0.0029973164161335455,0.1,0.045405472081007814,-0.004644935416369434,-0.026426759944367568,59098.052184466
-0.0007954389286217935,-0.008292588560472583,0.0032831191714854805,0.1,0.0445060570816737,-0.0071824918147833814,-0.02648850424070541,59245.612864077666
-0.00024390124832188387,-0.008275399193195348,0.003135354995594673,0.1,0.04362715158789509,-0.0052622070121847,-0.02622998388378237,59393.17354368931
-0.00030371326475656595,-0.008765248102092815,0.003175110500263966,0.1,0.04311445539208295,-0.003699780284853219,-0.026404000464845385,59540.73422330097
-0.0007826187187543098,-0.008555453478678489,0.0028382952842887516,0.1,0.044427063946379575,-0.006057434824831705,-0.026274731654991015,59688.29490291262
-0.0005169495361268222,-0.008437277779754768,0.0031476295386685116,0.1,0.04213932987611658,-0.0054247652280449065,-0.02607917090049404,59835.855582524266
-0.00042595968082126943,-0.00824903338370379,0.0028970130757538415,0.1,0.04276000348532955,-0.007133408467800229,-0.026474504970043666,59983.416262135914
-0.0005709529595177609,-0.008227253929743968,0.0028880252054212466,0.1,0.041402489167838896,-0.004186499173472766,-0.026324017071746655,60130.97694174757
-0.0006584607656313073,-0.008641181235507752,0.0028352678830811506,0.1,0.04361708834890634,-0.005098752178774792,-0.026500234711309367,60278.537621359224
-0.00038827410799726714,-0.008637157885110245,0.0030184638516512247,0.1,0.04134238903019597,-0.005322823498063354,-0.02595109861017275,60426.09830097087
-0.00034921936446885083,-0.008232959728009581,0.002839795242327516,0.1,0.04310810022776606,-0.003847596099286416,-0.02645128489227479,60573.65898058252
-0.0006263322385137332,-0.008375023601450298,0.002884097454659538,0.1,0.04443001234669783,-0.005931714597409813,-0.025521616799345583,60721.219660194176
-0.00043884955249422875,-0.008336421398307087,0.002633647698150634,0.1,0.041893210693539996,-0.0032448734552225837,-0.02553386283244098,60868.78033980583
-0.00047701638540105577,-0.008590340761797995,0.0025585986647929677,0.1,0.04224597892147628,-0.006386840348117193,-0.02681099133099745,61016.34101941747
-0.00017166212546197002,-0.008236692496014492,0.0024823339968699717,0.1,0.03971801807192213,-0.0042779593140284625,-0.026042987302983312,61163.90169902913
-0.0006768324320008559,-0.008587490667326135,0.002650124704421214,0.1,0.041723716655211726,-0.005722125280497833,-0.02630258298248351,61311.46237864077
-0.0003137668451583445,-0.00848403137682461,0.0026485996794570355,0.1,0.042521686805543316,-0.006333035654872599,-0.025650938566260648,61459.02305825241
-0.0005496426229876047,-0.008205540691930097,0.0025460300541893265,0.1,0.04126851294681484,-0.003943538901802563,-0.026535400106034376,61606.58373786407
-0.0006119979732181313,-0.008239851087487112,0.0029670496089367346,0.1,0.042206898486174246,-0.007316926400602284,-0.026731751754899835,61754.14441747572
-0.0005818352629057078,-0.008460586194509352,0.0030198417825202397,0.1,0.04050719308190855,-0.005240285182249622,-0.025718480707282436,61901.705097087375
-0.00020536740296325508,-0.00842234541139713,0.0023855023682521847,0.1,0.03944521996134741,-0.006624938003055405,-0.02685160244987295,62049.26577669902
4.982187300135157e-5,-0.008267275122316214,0.0028030378117778997,0.1,0.039924519214083055,-0.0069457409617570244,-0.026095154099480742,62196.82645631067
-0.00047390962995355135,-0.008444894238704228,0.002341096881251848,0.1,0.03847769346981901,-0.004364546058664751,-0.025626446061766027,62344.38713592233
4.196217387219701e-5,-0.008080362516327096,0.002725515223598868,0.1,0.03758805719384632,-0.005032834472768557,-0.026418427298079736,62491.947815533975
-5.9716084161566085e-6,-0.007926592322090052,0.0027327721220998615,0.1,0.03884225628883416,-0.0047680383074184185,-0.026395247203972086,62639.50849514562
-0.00029998887986725333,-0.008004013377715339,0.0024330539370041684,0.1,0.03705451781139426,-0.004139105816939005,-0.026642182445232875,62787.06917475728
-0.00021764921368388343,-0.007831713906097944,0.0028676622401372863,0.1,0.038660952008471715,-0.004179026537584913,-0.026275365834769478,62934.629854368926
6.682093650953993e-5,-0.00834036151658427,0.0028976153057326476,0.1,0.03723124607970707,-0.005808807457230787,-0.025590810720296786,63082.190533980574
-0.0005154706328514609,-0.008151113807048568,0.0027553181914671057,0.1,0.03632752655787779,-0.00692958818682221,-0.02685195205401828,63229.75121359223
-6.61789910265844e-5,-0.008135678489396555,0.0022427630663014162,0.1,0.037406116233212036,-0.003663810604046837,-0.026099188277699494,63377.31189320388
9.367444196354893e-5,-0.00799883297324445,0.0028832509830948104,0.1,0.03626066397938508,-0.003189204200764196,-0.02565513128986413,63524.872572815526
-0.00036465940657500135,-0.008241487443665485,0.0027907615401271697,0.1,0.035561446234850386,-0.004587367823872104,-0.026735617799638213,63672.433252427174
-9.459539148891423e-5,-0.008272382710475324,0.0028100550826523772,0.1,0.0383209174822814,-0.003524308012511312,-0.026706410508185365,63819.99393203883
-0.00020996550065347346,-0.008263529033505052,0.0026348946722166444,0.1,0.03617973545111904,-0.0035062701437428134,-0.025579323236679632,63967.55461165047
-0.0003919231974977665,-0.008282818869412602,0.002718413616897148,0.1,0.03851552009773075,-0.0034954678672630872,-0.025944313811105613,64115.115291262126
-0.00021649773451628114,-0.008236425934634339,0.0023048470344482295,0.1,0.03798482590758222,-0.0035715911585061963,-0.025660466030168947,64262.67597087378
-0.00027778639161021607,-0.0077980982662814785,0.0022056585064823223,0.1,0.03738582245434287,-0.004008694035205011,-0.02607409521359161,64410.23665048544
-6.0954728999515985e-5,-0.008215395669287749,0.0026866202782536578,0.1,0.0354447292611772,-0.006572537458716466,-0.02602805171757553,64557.797330097084
-0.0001969530259932769,-0.007924952737915523,0.002508078052777024,0.1,0.03715885032734301,-0.005343087991126232,-0.02558941038117571,64705.35800970873
0.00010143415227932944,-0.007706026329838658,0.002373468336892572,0.1,0.035850357287960086,-0.003958163877507047,-0.025856911895279885,64852.91868932039
0.0002893248831303697,-0.00796478624978104,0.002607582972245138,0.1,0.03531186682981782,-0.007033248568233317,-0.026199465699788493,65000.479368932036
-0.00030886291483532086,-0.008076850377715543,0.0025951638060861637,0.1,0.03472548750317546,-0.0037797457050264974,-0.025554042050696626,65148.040048543684
0.0002528749075501254,-0.008289638898253123,0.00224356668990664,0.1,0.03561935231258633,-0.007175345466836784,-0.02680896182836451,65295.60072815534
-3.3840563347000316e-5,-0.007776668551286297,0.002523065395688194,0.1,0.03542894489366134,-0.00416466239505487,-0.0256117220559922,65443.16140776697
-0.00019057776456258836,-0.008199949601289926,0.0024671950691327045,0.1,0.03589315132827145,-0.0026625785207431817,-0.026846278339083783,65590.72208737863
7.444957640368153e-5,-0.008202498877326143,0.002402914402261869,0.1,0.03229016930042565,-0.004361733661896822,-0.02611557686393296,65738.28276699029
0.00032836395038857125,-0.007956422806602944,0.001960051792379463,0.1,0.03522154405726844,-0.007234853317664649,-0.0267196875256745,65885.84344660194
-9.0352836111819e-6,-0.007577740107898945,0.0019441663218431522,0.1,0.03486073923019595,-0.004477986333189185,-0.026341220033312147,66033.40412621359
0.00020482027955055884,-0.008115471488821113,0.002301784412676584,0.1,0.03286380474536148,-0.00674323288022453,-0.026092794299975994,66180.96480582524
-0.00024961945016773953,-0.007940684761496185,0.001934534816493508,0.1,0.032849612898654054,-0.007244248928114308,-0.02556029789513271,66328.52548543688
-0.0002102253904376808,-0.008163985738201918,0.00216233745903055,0.1,0.031660116109026346,-0.0026198300124407386,-0.026531606979135803,66476.08616504855
0.0004626610946365837,-0.007982750122517968,0.0023077726090621185,0.1,0.033796791987364544,-0.003294209058551101,-0.026110622765301593,66623.6468446602
9.14275244985137e-5,-0.007512749280994113,0.0023422767618858985,0.1,0.032343617120388746,-0.00362269032817873,-0.025585963948919235,66771.20752427184
0.0001709904162276906,-0.00785244914728562,0.002446548395275465,0.1,0.03155774224866635,-0.003704899381498178,-0.025666694155752484,66918.76820388349
5.577605916842499e-5,-0.008115421649272127,0.0022215697931169077,0.1,0.031382198333377194,-0.005777349033922971,-0.025897518424876715,67066.32888349514
-3.231682877872881e-5,-0.007805816545699004,0.002091689862717414,0.1,0.032463457019024075,-0.003472414189089487,-0.025569992691259275,67213.88956310679
-5.47938282000707e-5,-0.0075552484279776365,0.0023284816912649605,0.1,0.031104208353107777,-0.006184175683092808,-0.02685033182871522,67361.45024271845
0.0004367967808125653,-0.007503572084621007,0.0023705780200084727,0.1,0.02946708640346906,-0.0050942742884518555,-0.026662462022246692,67509.0109223301
0.0001226859868302372,-0.007417140708998934,0.002239371054955802,0.1,0.03202933302238026,-0.0038708138909127445,-0.02635565345868006,67656.57160194175
1.710797835556701e-5,-0.007678373608979261,0.0018865132814229976,0.1,0.028510956143028454,-0.006173426560354457,-0.026014352978635264,67804.1322815534
0.0004899848382687974,-0.00793820131698404,0.0020645310048696963,0.1,0.03138012069732967,-0.003309246237601873,-0.02576371381761516,67951.69296116504
2.0985570317843166e-5,-0.007388155525250834,0.0021592340435368164,0.1,0.028622140384047718,-0.003335469163810534,-0.02656808143434428,68099.2536407767
0.00036042319458128437,-0.007986445445747805,0.0019620641010252592,0.1,0.028367963466370334,-0.0034014347477447178,-0.02659976759391578,68246.81432038835
0.000294331289756086,-0.007555601629675038,0.0018926368862535923,0.1,0.031147838301776944,-0.004795765994249613,-0.026847808406331147,68394.37499999999
-1.6284374824652146e-5,-0.007449115003468995,0.0021954764939599637,0.1,0.030709762413037283,-0.0050377673422727295,-0.026306013118448324,68541.93567961165
0.000555034171358215,-0.007660634644799506,0.002146846263263552,0.1,0.028019027410688083,-0.0066359643848067215,-0.025979657854842533,68689.49635922328
0.0004914324707950297,-0.007615183930632797,0.001991253735655256,0.1,0.026925490057660102,-0.0035173052047708115,-0.026760575336615376,68837.05703883493
9.724549191752614e-5,-0.007700964674595932,0.0019888408476475836,0.1,0.028265520336678635,-0.00418680255618192,-0.025621346842398016,68984.61771844659
3.5821415127224596e-5,-0.007629740548708848,0.002037570402926226,0.1,0.028120130911821518,-0.00297926884430019,-0.02670803350092038,69132.17839805824
0.0003836266679952669,-0.007487560484458123,0.0016679266961754525,0.1,0.02593523286935801,-0.0029982747092185827,-0.025758349265659706,69279.7390776699
0.0001821882132291665,-0.00749074562828613,0.0016166473414432317,0.1,0.027199324109874544,-0.002044089342863748,-0.025792800381930762,69427.29975728155
0.00020922983250713228,-0.007434420038343264,0.0017298599756375966,0.1,0.02864141152740731,-0.0028954240654988214,-0.026543872975050377,69574.86043689321
0.00043022686033021654,-0.007422587373437115,0.0017242960726544145,0.1,0.02870521530909655,-0.005200047808122355,-0.026132277522716203,69722.42111650485
0.0007276433191840286,-0.007407477191566848,0.0017242861175108138,0.1,0.025370480568532427,-0.005587839809368065,-0.02552951073545362,69869.98179611651
0.00023393906686148207,-0.007433578614337199,0.0016033701849416458,0.1,0.024905055746309187,-0.0017818328502964003,-0.02653051650721275,70017.54247572814
0.0003885010771590625,-0.00732301007028014,0.0020848737115531316,0.1,0.02649939346780609,-0.002419912939872782,-0.025586216813367788,70165.10315533979
0.0005010546645520238,-0.007660214592024897,0.0019965544129746777,0.1,0.025154073828344076,-0.0031650150967489675,-0.025747767194766572,70312.66383495144
0.0007720914397926354,-0.007241405534126631,0.001533153076428081,0.1,0.02680382209030434,-0.003789232456962669,-0.02675510174502653,70460.22451456309
0.0003521183488605937,-0.007416486481100764,0.0017229164609287365,0.1,0.023841992432001694,-0.005892937222148006,-0.025846686297484517,70607.78519417475
0.0005711253704799108,-0.007611264325111981,0.0016042730880969328,0.1,0.023624822353646855,-0.004783698199791051,-0.025978348720918098,70755.3458737864
0.00022375416857619966,-0.007396272992640266,0.0016826240566591548,0.1,0.025434788263305867,-0.003113146377980093,-0.025938204303943987,70902.90655339805
0.0004031498092258998,-0.007602734167912785,0.0017067873950776487,0.1,0.02383835719681252,-0.005075200706067079,-0.025699916876770795,71050.46723300971
0.00033641504661989475,-0.007780313889947321,0.002012588322954518,0.1,0.02494769845974494,-0.0015160570384957404,-0.025544363862475366,71198.02791262136
0.00029890488992267885,-0.00735498991473949,0.002013119763808636,0.1,0.025480136760647944,-0.0022179461197125386,-0.026348040713714025,71345.588592233
0.00026857610126402204,-0.007244757686333113,0.001696696950912267,0.1,0.023826206824980874,-0.002054628683595787,-0.026820347287194318,71493.14927184465
0.00035093734246680546,-0.007600431775876055,0.001529922616868884,0.1,0.025023832540428396,-0.006198212459893568,-0.025684089398120488,71640.7099514563
0.0005573409505978596,-0.0077288254258423145,0.0019148549244503645,0.1,0.024245666247266942,-0.0058798271324895955,-0.02632926982004911,71788.27063106796
0.0007733668677641205,-0.007762035719054559,0.0014265438769780303,0.1,0.022565608340074858,-0.004602376107381186,-0.02629479369641213,71935.83131067961
0.0003518641380068377,-0.007154354511725782,0.0015286050653066335,0.1,0.02340342096526049,-0.00562517554539497,-0.025688407221838565,72083.39199029126
0.0005545662588673793,-0.00752223986423103,0.001954060769787382,0.1,0.021898124117904913,-0.004150806601935784,-0.02672659491438872,72230.95266990291
0.00047063062125919083,-0.007418419616685984,0.0017814850566089462,0.1,0.02451772655807785,-0.004071197738176022,-0.0263692156314245,72378.51334951456
0.0002982513555433471,-0.007670839130511076,0.0016331732646640061,0.1,0.021020500679470967,-0.004594885705335789,-0.02555473140908866,72526.0740291262
0.00036954950763216514,-0.007208903032930855,0.0015041839913521769,0.1,0.021196673989314786,-0.0016708630025263444,-0.026148840594918794,72673.63470873787
0.000830098011429021,-0.007137047215446716,0.0015627370673733706,0.1,0.020122566422169513,-0.00432545335762652,-0.02656263768728536,72821.19538834952
0.000580282262728567,-0.007328459749786092,0.001465481131594417,0.1,0.021432365023475466,-0.0025230223234530384,-0.02650183703255411,72968.75606796116
0.0009042115539691135,-0.0074927478475871785,0.0012771323795988583,0.1,0.020520138107020188,-0.0019303070328893308,-0.026193837826397576,73116.31674757281
0.0008313941249933045,-0.0076296151784362885,0.001340296762545689,0.1,0.021902988772719668,-0.00391069614476318,-0.02594769928552989,73263.87742718447
0.0008355097508556601,-0.007535405412455607,0.001624543841337214,0.1,0.022379767647471627,-0.0017401409821125068,-0.026565286018456633,73411.43810679612
0.0009544324106882083,-0.007193062991772115,0.0017632398129827634,0.1,0.01859372689984,-0.003555000676215477,-0.025993610976319557,73558.99878640776
0.000992844369074047,-0.007084110064447197,0.0017234018554306164,0.1,0.019720152726440118,-0.0037023763178536794,-0.026165026224441543,73706.5594660194
0.0008498132843826201,-0.007620366005867403,0.0011785750630083141,0.1,0.018079063209392135,-0.0027830682554512423,-0.026548578191779526,73854.12014563105
0.0006543385851923518,-0.0074491170308464165,0.0014216101762264369,0.1,0.02032276832483315,-0.0034095638984021005,-0.02616572361779554,74001.6808252427
0.0007314804042445077,-0.0070294515956621385,0.00135210003550832,0.1,0.02119701332164958,-0.005611730477694721,-0.02588263473431628,74149.24150485435
0.00043563847680919984,-0.0073944020445735805,0.001411396421229558,0.1,0.018346932125038816,-0.004417697862082265,-0.02585359929778263,74296.80218446601
0.0005406014955820974,-0.00733435277358079,0.001226336296169866,0.1,0.01891336848048505,-0.0036483555924869447,-0.026300537055828483,74444.36286407766
0.0008423483227734988,-0.0075648771965614965,0.0011252443820683872,0.1,0.017309245260577293,-0.0035182258243077066,-0.026292433016020644,74591.9235436893
0.000576089379108756,-0.007051170860466043,0.0012357677112572894,0.1,0.01702022939659476,-0.004538033546250053,-0.026094012044082345,74739.48422330097
0.0010580646723468547,-0.007534660742766777,0.001244440016096482,0.1,0.01951158489496682,-0.005576185044170961,-0.026049172424460063,74887.04490291262
0.0011005858996973544,-0.007531897566318335,0.0013894084294897712,0.1,0.018838287979718746,-0.003607534196442281,-0.02679420439111807,75034.60558252427
0.0009711130849955937,-0.007259293807737109,0.0010518612816974781,0.1,0.017343384297964882,-0.005506117000645513,-0.025807241495493283,75182.16626213591
0.0009013668884031868,-0.0075431219975077585,0.0013703844316592603,0.1,0.0162280339136469,-0.004510064600705493,-0.02672203625156381,75329.72694174756
0.0008971041855995629,-0.007452491381166178,0.0010308011370951287,0.1,0.015984073647978436,-0.0009935033272144731,-0.02551671982285674,75477.28762135922
0.0004670371159168866,-0.007645791078480299,0.0010380861023051673,0.1,0.01500912876557896,-0.0026851990011439453,-0.026406608157224478,75624.84830097087
0.0005081670402350354,-0.00758446382327275,0.0010847104375227069,0.1,0.01776096663741798,-0.0017928479868721309,-0.026229630028272412,75772.4089805825
0.0010570434485083447,-0.006979145256451102,0.0009758831649338539,0.1,0.015174392465338808,-0.004453122133661005,-0.026343658569739335,75919.96966019415
0.0006500796390988341,-0.007052614058430097,0.0010846324946448746,0.1,0.016783647223299086,-0.004896577635533774,-0.026689354833424894,76067.53033980582
0.0007745611832669058,-0.007601267535837275,0.0011876458140437317,0.1,0.0146350446505524,-0.0034922421617214474,-0.026303137001687155,76215.09101941746
0.0010987395549261658,-0.0071385094729739884,0.000904438164791836,0.1,0.016734215958562504,-0.00554141432737304,-0.025667179199661275,76362.65169902913
0.0006381884104567764,-0.006980504807895535,0.0013067501412063849,0.1,0.016989455383814155,-0.004629572840020444,-0.025785399079934056,76510.21237864078
0.0010759602533723376,-0.006934589678834762,0.001417420563695159,0.1,0.015469451158049327,-0.002385984693195154,-0.026232756219186953,76657.77305825244
0.0010180413744252607,-0.007501433367264172,0.0014984158720507863,0.1,0.016175065456065976,-0.0045369547369010586,-0.02613352648784635,76805.33373786409
0.0005699045586345118,-0.007313945460576628,0.0010529292904934758,0.1,0.014980176516143843,-0.001242496392535933,-0.02676590803228481,76952.89441747573
0.0010019665644368954,-0.0075018439951945095,0.0014024574265037984,0.1,0.014769490302135407,-0.0031342126616476073,-0.02573069614942588,77100.45509708738
0.0008624927459494072,-0.007023715279002857,0.0012289616660309658,0.1,0.013078809369678748,-0.00344905897437437,-0.025743449370677685,77248.01577669903
0.000942102940159394,-0.007538823755057312,0.0009113986554288188,0.1,0.01500379311616227,-0.005434841540120165,-0.02639419916865667,77395.57645631066
0.0006595149063823869,-0.006953720304541407,0.0008159338693413962,0.1,0.012920943417450264,-0.003681141594239983,-0.02578664576775185,77543.13713592231
0.001021396055309223,-0.007179121425909106,0.0011003670359673741,0.1,0.0145338049209057,-0.00062327535440829,-0.02652518596855901,77690.69781553396
0.0007713818119314962,-0.0072509781498001245,0.0011797897455861307,0.1,0.012457382121377394,-0.005460721057967069,-0.025782463326133667,77838.25849514562
0.0009089919653691145,-0.007412568980401654,0.0009689012927891487,0.1,0.012452734332471313,-0.0023530320298370835,-0.025752655321097086,77985.81917475729
0.0009605495205702626,-0.007278142212235189,0.0008474629871539918,0.1,0.013498823392605485,-0.001079826080527501,-0.02655872853301658,78133.37985436892
0.000806139647956366,-0.0074145351632173,0.0010023502435690171,0.1,0.014098372579276468,-0.002813578462803544,-0.026431004165190886,78280.9405339806
0.0010271558406358208,-0.0069912913140885045,0.0013729252069586881,0.1,0.010200199366610232,-0.004082113725181849,-0.026135417630907234,78428.50121359223
0.000657038172638005,-0.007094703016814455,0.000905407994913355,0.1,0.011816632156046265,-0.0037970923507096277,-0.02633395064940106,78576.06189320388
0.0012118705361651258,-0.007315131865986082,0.0012842330396242384,0.1,0.01344340981243268,-0.003457093599111854,-0.025506508358580874,78723.62257281553
0.0010106677318376708,-0.007473391512548799,0.0011027975486041861,0.1,0.011866023744925654,-0.004186696965490056,-0.02599885062643439,78871.18325242716
0.0009943337870774445,-0.006936269355730392,0.0010988384423458533,0.1,0.0109756348614517,-0.00041324309338459236,-0.025631395373096725,79018.74393203882
0.0007447058289235804,-0.007174991375676484,0.0012491339993984782,0.1,0.00915930891624126,-0.0033398918170123603,-0.026809247787708834,79166.30461165047
0.000981579004790157,-0.006833533868963393,0.0011674644351424687,0.1,0.011689825086742793,-0.003744609642317819,-0.02554976022934525,79313.86529126213
0.0007735965817453572,-0.007371961623812546,0.0011405292000685613,0.1,0.01034064721224448,-0.0033779189440715524,-0.026276133050361188,79461.42597087377
0.0011505201779232511,-0.007425074730986605,0.0005847065478818096,0.1,0.009259960122622944,-0.0031746016150589603,-0.02636372046640675,79608.98665048543
0.0010470839044637219,-0.0072410062300987356,0.0009565514269380958,0.1,0.011074865720902664,-0.0006224657861537458,-0.026294909093864994,79756.54733009709
0.0008799455457838151,-0.007113888617408553,0.0006426625182845801,0.1,0.00771776305070301,-0.002118914268475414,-0.026267514153432998,79904.10800970874
0.0011264119704493623,-0.0069472633454412454,0.0012087043166864502,0.1,0.01025091605953898,-0.000714073266555407,-0.026314756529598804,80051.66868932037
0.0009703977701537699,-0.0073730584740430835,0.000595614738887639,0.1,0.007968405559312048,-0.004653965509761066,-0.025616710466621853,80199.22936893204
0.0009585854849528511,-0.006781291219390335,0.0007392608925173122,0.1,0.010119642552029698,-0.0016053103147261267,-0.02563457896960872,80346.79004854368
0.0014320002411142827,-0.0073142751371828175,0.0007697523432690078,0.1,0.009511631881606331,-0.0017199440067290428,-0.026125641303155124,80494.35072815533
0.0012309489626424954,-0.007047400786817092,0.000733174845765064,0.1,0.009005722040825085,-0.0042863551564447525,-0.026405043354857882,80641.91140776698
0.0013006276200306403,-0.007328291095125407,0.0005083068235661541,0.1,0.0076076750868319205,-0.0004278765948391235,-0.026620824361478675,80789.47208737863
0.0014180021255076258,-0.006853118105817083,0.0009316021513842443,0.1,0.005673253227268224,-0.00032919658785776455,-0.026420038014847446,80937.03276699028
0.0011102661224270177,-0.006803203615465443,0.0006933405280354343,0.1,0.0056426321868800495,-0.0006506604803614157,-0.026490074107254034,81084.59344660194
0.0012847910632650362,-0.006858366322290587,0.0004927684319861783,0.1,0.005538791577516897,-0.001498092100392208,-0.026284489854882468,81232.15412621359
0.0011775900822761061,-0.006851555697999351,0.0008066520836743781,0.1,0.004836492556339364,-0.0034748934490706463,-0.02666635205738329,81379.71480582525
0.001090807440260021,-0.007257220689582427,0.0007070752445175861,0.1,0.008481359226322135,-0.004269622023556665,-0.02685986440659515,81527.27548543688
0.0011783138868402372,-0.007085059406006458,0.00041127963253803466,0.1,0.0066853031766583165,-0.0016793704317659185,-0.026752214352770195,81674.83616504855
0.0013381871517960178,-0.006792333311852552,0.0003879130897636884,0.1,0.0058555088865944824,-0.0006567991479213408,-0.026863186370091028,81822.3968446602
0.0009818770884970813,-0.0071168509904379375,0.0004741300269940294,0.1,0.007210309870017636,-0.0005761811753325714,-0.025833600527229064,81969.95752427184
0.0015261788303782202,-0.006809270398198529,0.00101522446107348,0.1,0.007597116290369471,-0.004050906141905076,-0.025753026782691212,82117.51820388348
0.0011861949286295684,-0.006804356927316402,0.000652801489206071,0.1,0.007278852088547223,-0.0021004249941625006,-0.026300917094666636,82265.07888349512
0.0010667410550058275,-0.007295231047664606,0.000565716583253937,0.1,0.003754652054982567,-0.0017510660426004986,-0.026732903333346193,82412.63956310679
0.00141472881275383,-0.0070662108896863834,0.0007278949507597614,0.1,0.004385389209048925,-0.0007993844014259274,-0.026458534687854945,82560.20024271845
0.001325187342401502,-0.0071611596408533516,0.00071392068146851,0.1,0.006447491612823339,-0.0006282383043173187,-0.026517323514982323,82707.7609223301
0.001464657087371489,-0.007071742016146244,0.0005476979931763114,0.1,0.002976917191333985,-0.00400874388851058,-0.025513552508315353,82855.32160194173
0.0010015727934666646,-0.006893304330997103,0.000805286087628286,0.1,0.004202023283353041,-0.0020614918335171194,-0.025684454330338148,83002.8822815534
0.0010935924919548094,-0.0068724087571277,0.0005358702676401738,0.1,0.005828853379870277,-0.0027678440219636113,-0.025497718005917797,83150.44296116506
0.001256887391150907,-0.006997308296952245,0.0004215804520236706,0.1,0.004547199351181071,-0.001854546945695786,-0.026368517508873965,83298.00364077669
0.0016222944299082512,-0.006973833890499339,0.0006783590162850137,0.1,0.004623684759158082,-0.0014342824438032644,-0.02643145006751853,83445.56432038832
0.001321046879238816,-0.0068371707700412435,0.0002747199482397783,0.1,0.0025406035860527417,-0.00017520212846674262,-0.025557169993422224,83593.12499999999
0.0013063919585954292,-0.007132334292812556,0.0005313614733098689,0.1,0.003163753430634531,0.00013717984183373843,-0.026092113640286928,83740.68567961163
0.001543149662414881,-0.007204637952359958,0.000634482373764136,0.1,0.003548998280944211,0.00018059369563756507,-0.026582428069243966,83888.2463592233
0.001018155615054751,-0.006709578357956037,0.0002629549728864075,0.1,0.000448265702697711,-0.0021575569817364544,-0.025996205526638616,84035.80703883494
0.001006800778165496,-0.007313044678542697,0.0005090278119757589,0.1,0.00242740525446138,-0.0031751575073951646,-0.026726932914509168,84183.36771844659
0.001008700350992204,-0.006912431578732317,0.0007160164212004401,0.1,0.0022304052554729887,-0.00433193919558887,-0.026573805332834776,84330.92839805825
0.001322257527602642,-0.006677068974763074,0.0007551328172818374,0.1,0.0006626759404157438,-0.004196750756214432,-0.026164687577444414,84478.4890776699
0.0015016384734545766,-0.006903477241758688,0.0005701532857278682,0.1,0.001802988683590934,-0.0015989072925908965,-0.026749478385871953,84626.04975728154
0.0011358656188342998,-0.006726649572922032,0.0005805735740875456,0.1,0.0013771660555724442,-0.00031223323943488867,-0.026570334906495036,84773.6104368932
0.0010276372009615988,-0.006947317520789935,0.0007096018668587479,0.1,0.0028557779289140025,-0.0037912793271599144,-0.02620918381060306,84921.17111650485
0.0015770299865872851,-0.007336191417948089,0.0007692955995819201,0.1,-0.00045324440388378297,-0.0003426225565050661,-0.026182231040992945,85068.73179611651
0.0011099071105337152,-0.006854075162580095,0.0005917919579603668,0.1,0.0023023158542098145,-0.0017509129603971597,-0.026799275081863586,85216.29247572814
0.0013786175789429027,-0.007261154732086682,0.00017958063079500828,0.1,0.0015292336945855031,-0.002431560490836029,-0.026612627243830025,85363.8531553398
0.0013936094976013309,-0.0069753509575750765,0.0004154762994202492,0.1,0.0007317516728909259,-0.004179016453578535,-0.026326170799365892,85511.41383495144
0.0012906313202054802,-0.006652272124020762,0.00014502927723919972,0.1,0.0003384445830189515,-0.0017200137259817713,-0.0261793655423509,85658.9745145631
0.001738873497825984,-0.006930886415010209,0.00026288811846098085,0.1,-0.0019247290267447148,0.00010224124875716817,-0.02672678169263535,85806.53519417474
0.0011219116345079026,-0.0066366037196929715,9.725538927302785e-5,0.1,-0.0007598713948714484,-0.0014656921836720428,-0.025776035642187837,85954.09587378641
0.00167426313337159,-0.007166928617358433,0.0005878692528554236,0.1,-0.0006881836818713238,-0.0029292998973978264,-0.026614778496801897,86101.65655339805
0.0011089987537017728,-0.00719175836129915,0.00051464526220632,0.1,-0.002914948626634585,-0.0025172921300127744,-0.026597365000889966,86249.21723300971
0.0015673752420711895,-0.006972065782652271,0.0004565961885887102,0.1,-0.0022932138013861576,-0.00014765929372569575,-0.026232485367482433,86396.77791262136
0.0011641438450907778,-0.006954690665207012,9.190128025073134e-5,0.1,-0.0025564232789714,-0.0037885911791190607,-0.025991988422107277,86544.338592233
0.0013781007513568734,-0.006986840210958407,0.0004314528639311714,0.1,-0.003095393946561288,-0.0018095243386408017,-0.02637458308306617,86691.89927184465
0.0016058755093306737,-0.006854360493394018,0.0003299062273573007,0.1,-0.0030651775721758628,-0.00175716512770923,-0.02674644521462289,86839.45995145632
0.0014033258769871489,-0.007095906353917416,0.0005431194359619663,0.1,-0.0038189779276270007,-0.0014521997925279328,-0.026546256654331548,86987.02063106795
0.0012438374470949676,-0.006659524648917288,0.0002897015087085489,0.1,-0.003056385910884291,-0.0007519905261825904,-0.026624111729796576,87134.58131067958
0.0013590806967096946,-0.0072879193855563814,-1.1072632048878559e-5,0.1,-0.00461989744696206,-0.002282178310498059,-0.0259474575756786,87282.14199029126
0.001688958118161554,-0.007017376115201214,0.000284389942938252,0.1,-0.0023886761899891496,-0.0005002841144259275,-0.025824925090835393,87429.7026699029
0.0015862618064961087,-0.006976361064128996,0.00011057773227408468,0.1,-0.0027221339531133854,-0.002831340648353862,-0.025659036109974907,87577.26334951456
0.001643167463586082,-0.006697898742747016,2.0170559479753072e-5,0.1,-0.0019354081177512031,-0.002139176155860244,-0.02622416966997693,87724.82402912622
0.0014333445364269665,-0.006953624845363786,0.0003209481611473271,0.1,-0.0023228057503734863,-0.001270029163207217,-0.026727295461212736,87872.38470873785
0.0012454830303872278,-0.006725623438663756,0.0003721064531285315,0.1,-0.0026107004606790675,-0.003781327202660457,-0.026089686545360608,88019.9453883495
